3/12/2021 4:57:56 PM
Series 1
-----------------------------------------------
Frequency (kHz)	Degrees (Â°)
182.913   75.794
182.922   75.507
182.932   75.400
182.942   75.646
182.951   75.593
182.961   74.887
182.971   75.165
182.981   74.663
182.990   74.893
183.000   74.706
183.010   73.873
183.019   74.212
183.029   74.050
183.039   73.834
183.049   73.711
183.058   73.089
183.068   73.207
183.078   73.607
183.088   73.015
183.097   73.142
183.107   72.832
183.117   72.945
183.126   72.269
183.136   72.598
183.146   72.213
183.156   72.036
183.165   72.063
183.175   71.511
183.185   71.512
183.194   71.847
183.204   70.890
183.214   71.423
183.224   70.569
183.233   71.120
183.243   70.932
183.253   70.700
183.263   70.678
183.272   70.607
183.282   70.782
183.292   70.238
183.301   70.398
183.311   70.116
183.321   70.029
183.331   70.242
183.340   69.698
183.350   69.931
183.360   69.941
183.370   69.752
183.379   69.778
183.389   69.489
183.399   69.631
183.408   69.059
183.418   69.540
183.428   69.570
183.438   68.797
183.447   69.077
183.457   69.106
183.467   68.965
183.476   69.171
183.486   68.916
183.496   68.808
183.506   68.669
183.515   68.980
183.525   68.834
183.535   68.943
183.545   68.577
183.554   68.370
183.564   68.560
183.574   68.676
183.583   68.567
183.593   68.275
183.603   68.249
183.613   68.388
183.622   68.516
183.632   68.155
183.642   68.426
183.651   68.135
183.661   68.331
183.671   68.086
183.681   68.564
183.690   68.147
183.700   68.204
183.710   68.058
183.720   68.348
183.729   68.058
183.739   68.137
183.749   68.299
183.758   68.216
183.768   68.148
183.778   68.021
183.788   68.474
183.797   68.121
183.807   68.333
183.817   68.016
183.827   68.295
183.836   68.481
183.846   68.112
183.856   68.405
183.865   68.586
183.875   68.221
183.885   68.432
183.895   68.346
183.904   68.518
183.914   68.413
183.924   68.619
183.933   68.407
183.943   68.627
183.953   68.831
183.963   68.617
183.972   68.783
183.982   68.876
183.992   68.677
184.002   68.905
184.011   68.835
184.021   68.637
184.031   69.371
184.040   69.186
184.050   68.992
184.060   69.099
184.070   69.234
184.079   69.220
184.089   69.251
184.099   69.335
184.108   69.351
184.118   69.300
184.128   69.437
184.138   69.568
184.147   69.375
184.157   69.927
184.167   69.797
184.177   69.921
184.186   69.696
184.196   70.330
184.206   69.970
184.215   70.061
184.225   70.200
184.235   70.133
184.245   70.391
184.254   70.663
184.264   70.556
184.274   70.291
184.284   70.594
184.293   70.614
184.303   70.584
184.313   70.632
184.322   71.041
184.332   70.801
184.342   71.036
184.352   71.266
184.361   71.349
184.371   71.002
184.381   71.375
184.390   71.517
184.400   71.980
184.410   71.592
184.420   71.740
184.429   71.720
184.439   72.015
184.449   71.796
184.459   71.620
184.468   72.101
184.478   71.909
184.488   72.149
184.497   72.305
184.507   72.419
184.517   72.774
184.527   72.473
184.536   72.628
184.546   72.677
184.556   72.848
184.565   72.964
184.575   73.021
184.585   73.154
184.595   73.132
184.604   73.399
184.614   73.271
184.624   73.350
184.634   73.520
184.643   73.589
184.653   73.618
184.663   73.946
184.672   73.895
184.682   73.860
184.692   73.984
184.702   74.284
184.711   74.356
184.721   74.348
184.731   74.410
184.741   74.366
184.750   74.550
184.760   74.677
184.770   74.655
184.779   75.149
184.789   75.062
184.799   75.161
184.809   75.294
184.818   75.399
184.828   75.412
184.838   75.373
184.847   75.753
184.857   75.716
184.867   75.674
184.877   75.926
184.886   76.171
184.896   76.013
184.906   76.265
184.916   76.609
184.925   76.655
184.935   76.636
184.945   76.620
184.954   76.813
184.964   76.922
184.974   76.940
184.984   77.187
184.993   77.328
185.003   77.422
185.013   77.432
185.022   77.646
185.032   77.598
185.042   77.812
185.052   77.886
185.061   78.002
185.071   78.099
185.081   78.347
185.091   78.152
185.100   78.407
185.110   78.536
185.120   78.666
185.129   78.889
185.139   78.923
185.149   79.044
185.159   79.193
185.168   79.330
185.178   79.284
185.188   79.590
185.198   79.589
185.207   79.576
185.217   79.693
185.227   79.997
185.236   80.317
185.246   80.396
185.256   80.357
185.266   80.543
185.275   80.617
185.285   80.745
185.295   80.980
185.304   80.927
185.314   80.990
185.324   81.113
185.334   81.281
185.343   81.484
185.353   81.730
185.363   81.867
185.373   82.038
185.382   82.117
185.392   82.122
185.402   82.251
185.411   82.463
185.421   82.517
185.431   82.710
185.441   82.752
185.450   83.028
185.460   83.093
185.470   83.179
185.480   83.494
185.489   83.429
185.499   83.653
185.509   83.779
185.518   84.062
185.528   84.069
185.538   84.315
185.548   84.422
185.557   84.522
185.567   84.666
185.577   84.749
185.586   84.980
185.596   85.052
185.606   85.134
185.616   85.201
185.625   85.356
185.635   85.425
185.645   85.685
185.655   85.797
185.664   85.994
185.674   86.069
185.684   86.229
185.693   86.306
185.703   86.512
185.713   86.740
185.723   86.902
185.732   87.134
185.742   87.067
185.752   87.336
185.761   87.325
185.771   87.501
185.781   87.522
185.791   87.791
185.800   87.962
185.810   88.009
185.820   88.091
185.830   88.289
185.839   88.380
185.849   88.522
185.859   88.592
185.868   88.960
185.878   88.860
185.888   89.044
185.898   89.107
185.907   89.169
185.917   89.458
185.927   89.602
185.937   89.484
185.946   89.792
185.956   89.770
185.966   89.904
185.975   89.983
185.985   90.047
185.995   90.018
186.005   90.093
186.014   90.340
186.024   90.359
186.034   90.484
186.043   90.527
186.053   90.745
186.063   90.628
186.073   90.833
186.082   90.954
186.092   90.930
186.102   91.110
186.112   91.178
186.121   91.354
186.131   91.401
186.141   91.442
186.150   91.588
186.160   91.587
186.170   91.520
186.180   91.744
186.189   91.759
186.199   91.847
186.209   91.993
186.218   91.930
186.228   92.083
186.238   92.167
186.248   92.134
186.257   92.395
186.267   92.149
186.277   92.337
186.287   92.482
186.296   92.445
186.306   92.465
186.316   92.563
186.325   92.559
186.335   92.669
186.345   92.530
186.355   92.622
186.364   92.712
186.374   92.647
186.384   92.669
186.394   92.630
186.403   92.699
186.413   92.654
186.423   92.741
186.432   92.858
186.442   92.749
186.452   92.706
186.462   92.760
186.471   92.787
186.481   92.764
186.491   92.635
186.500   92.683
186.510   92.558
186.520   92.577
186.530   92.518
186.539   92.619
186.549   92.477
186.559   92.363
186.569   92.484
186.578   92.428
186.588   92.331
186.598   92.365
186.607   92.274
186.617   92.199
186.627   92.256
186.637   92.143
186.646   92.117
186.656   92.048
186.666   91.996
186.675   92.036
186.685   91.770
186.695   91.720
186.705   91.766
186.714   91.633
186.724   91.590
186.734   91.560
186.744   91.466
186.753   91.343
186.763   91.319
186.773   91.316
186.782   91.074
186.792   91.139
186.802   91.067
186.812   90.911
186.821   90.951
186.831   90.865
186.841   90.751
186.851   90.664
186.860   90.604
186.870   90.465
186.880   90.506
186.889   90.414
186.899   90.326
186.909   90.334
186.919   90.250
186.928   90.234
186.938   90.149
186.948   90.082
186.957   90.037
186.967   90.014
186.977   89.997
186.987   89.989
186.996   90.008
187.006   89.972
187.016   89.962
187.026   89.998
187.035   89.970
187.045   89.987
187.055   89.994
187.064   89.999
187.074   89.961
187.084   90.018
187.094   90.003
187.103   90.015
187.113   90.010
187.123   90.141
187.132   90.234
187.142   90.318
187.152   90.402
187.162   90.503
187.171   90.594
187.181   90.733
187.191   90.919
187.201   91.043
187.210   91.235
187.220   91.372
187.230   91.570
187.239   91.818
187.249   92.068
187.259   92.313
187.269   92.488
187.278   92.799
187.288   93.100
187.298   93.404
187.308   93.793
187.317   94.140
187.327   94.533
187.337   94.877
187.346   95.302
187.356   95.764
187.366   96.179
187.376   96.702
187.385   97.232
187.395   97.823
187.405   98.368
187.414   99.042
187.424   99.687
187.434   100.409
187.444   101.113
187.453   101.888
187.463   102.765
187.473   103.625
187.483   104.549
187.492   105.394
187.502   106.531
187.512   107.789
187.521   108.625
187.531   109.933
187.541   111.163
187.551   112.447
187.560   113.916
187.570   115.415
187.580   116.935
187.589   118.560
187.599   120.292
187.609   122.074
187.619   123.968
187.628   125.936
187.638   128.016
187.648   130.144
187.658   132.397
187.667   134.732
187.677   137.109
187.687   139.611
187.696   142.133
187.706   144.766
187.716   147.449
187.726   150.154
187.735   152.898
187.745   155.637
187.755   158.393
187.765   161.156
187.774   163.872
187.784   166.569
187.794   169.219
187.803   171.806
187.813   174.324
187.823   176.768
187.833   179.091
187.842   -178.676
187.852   -176.513
187.862   -174.418
187.871   -172.439
187.881   -170.529
187.891   -168.748
187.901   -167.029
187.910   -165.414
187.920   -163.846
187.930   -162.367
187.940   -160.979
187.949   -159.666
187.959   -158.405
187.969   -157.222
187.978   -156.094
187.988   -155.018
187.998   -153.989
188.008   -153.003
188.017   -152.072
188.027   -151.189
188.037   -150.364
188.047   -149.539
188.056   -148.793
188.066   -148.045
188.076   -147.346
188.085   -146.647
188.095   -146.059
188.105   -145.416
188.115   -144.816
188.124   -144.274
188.134   -143.749
188.144   -143.235
188.153   -142.724
188.163   -142.224
188.173   -141.799
188.183   -141.327
188.192   -140.945
188.202   -140.486
188.212   -140.148
188.222   -139.744
188.231   -139.382
188.241   -139.001
188.251   -138.664
188.260   -138.401
188.270   -138.099
188.280   -137.724
188.290   -137.423
188.299   -137.180
188.309   -136.913
188.319   -136.589
188.328   -136.339
188.338   -136.115
188.348   -135.857
188.358   -135.657
188.367   -135.378
188.377   -135.195
188.387   -134.937
188.397   -134.802
188.406   -134.539
188.416   -134.359
188.426   -134.154
188.435   -133.954
188.445   -133.765
188.455   -133.582
188.465   -133.474
188.474   -133.226
188.484   -133.064
188.494   -132.896
188.504   -132.708
188.513   -132.551
188.523   -132.420
188.533   -132.234
188.542   -132.090
188.552   -131.896
188.562   -131.785
188.572   -131.600
188.581   -131.520
188.591   -131.399
188.601   -131.265
188.610   -131.025
188.620   -130.958
188.630   -130.810
188.640   -130.658
188.649   -130.553
188.659   -130.427
188.669   -130.277
188.679   -130.206
188.688   -130.061
188.698   -129.941
188.708   -129.799
188.717   -129.691
188.727   -129.564
188.737   -129.401
188.747   -129.377
188.756   -129.107
188.766   -129.016
188.776   -128.898
188.785   -128.842
188.795   -128.756
188.805   -128.605
188.815   -128.456
188.824   -128.339
188.834   -128.207
188.844   -128.110
188.854   -127.974
188.863   -127.920
188.873   -127.778
188.883   -127.615
188.892   -127.534
188.902   -127.453
188.912   -127.329
188.922   -127.166
188.931   -127.054
188.941   -126.874
188.951   -126.814
188.961   -126.685
188.970   -126.565
188.980   -126.488
188.990   -126.295
188.999   -126.183
189.009   -126.075
189.019   -125.890
189.029   -125.821
189.038   -125.720
189.048   -125.602
189.058   -125.436
189.067   -125.426
189.077   -125.203
189.087   -125.028
189.097   -124.954
189.106   -124.846
189.116   -124.703
189.126   -124.587
189.136   -124.408
189.145   -124.303
189.155   -124.170
189.165   -123.986
189.174   -123.999
189.184   -123.869
189.194   -123.609
189.204   -123.503
189.213   -123.318
189.223   -123.233
189.233   -123.100
189.242   -122.876
189.252   -122.731
189.262   -122.773
189.272   -122.476
189.281   -122.424
189.291   -122.254
189.301   -122.199
189.311   -121.904
189.320   -121.768
189.330   -121.635
189.340   -121.443
189.349   -121.361
189.359   -121.155
189.369   -121.123
189.379   -121.037
189.388   -120.791
189.398   -120.697
189.408   -120.574
189.418   -120.384
189.427   -120.211
189.437   -120.022
189.447   -119.856
189.456   -119.766
189.466   -119.646
189.476   -119.508
189.486   -119.343
189.495   -119.157
189.505   -119.003
189.515   -118.858
189.524   -118.687
189.534   -118.550
189.544   -118.393
189.554   -118.208
189.563   -118.101
189.573   -117.982
189.583   -117.739
189.593   -117.553
189.602   -117.505
189.612   -117.370
189.622   -116.944
189.631   -116.943
189.641   -116.803
189.651   -116.648
189.661   -116.489
189.670   -116.300
189.680   -116.237
189.690   -115.966
189.699   -115.853
189.709   -115.586
189.719   -115.508
189.729   -115.338
189.738   -115.177
189.748   -114.998
189.758   -114.825
189.768   -114.656
189.777   -114.499
189.787   -114.278
189.797   -114.149
189.806   -113.908
189.816   -113.814
189.826   -113.618
189.836   -113.526
189.845   -113.252
189.855   -113.072
189.865   -112.940
189.875   -112.726
189.884   -112.550
189.894   -112.310
189.904   -112.148
189.913   -112.008
189.923   -111.791
189.933   -111.678
189.943   -111.456
189.952   -111.249
189.962   -111.109
189.972   -110.966
189.981   -110.681
189.991   -110.578
190.001   -110.371
190.011   -110.115
190.020   -109.866
190.030   -109.816
190.040   -109.627
190.050   -109.364
190.059   -109.192
190.069   -109.075
190.079   -108.817
190.088   -108.558
190.098   -108.313
190.108   -108.187
190.118   -107.998
190.127   -107.840
190.137   -107.615
190.147   -107.472
190.156   -107.229
190.166   -107.030
190.176   -106.804
190.186   -106.583
190.195   -106.377
190.205   -106.256
190.215   -106.008
190.225   -105.894
190.234   -105.597
190.244   -105.405
190.254   -105.185
190.263   -105.074
190.273   -104.817
190.283   -104.615
190.293   -104.424
190.302   -104.280
190.312   -104.035
190.322   -103.895
190.332   -103.746
190.341   -103.455
190.351   -103.233
190.361   -103.069
190.370   -102.901
190.380   -102.601
190.390   -102.413
190.400   -102.279
190.409   -102.071
190.419   -101.949
190.429   -101.624
190.438   -101.535
190.448   -101.222
190.458   -101.047
190.468   -100.894
190.477   -100.591
190.487   -100.492
190.497   -100.251
190.507   -100.116
190.516   -99.999
190.526   -99.731
190.536   -99.542
190.545   -99.486
190.555   -99.086
190.565   -98.982
190.575   -98.792
190.584   -98.577
190.594   -98.486
190.604   -98.195
190.614   -98.021
190.623   -97.945
190.633   -97.753
190.643   -97.560
190.652   -97.374
190.662   -97.187
190.672   -97.040
190.682   -96.810
190.691   -96.559
190.701   -96.592
190.711   -96.328
190.720   -96.134
190.730   -95.992
190.740   -95.834
190.750   -95.679
190.759   -95.509
190.769   -95.304
190.779   -95.180
190.789   -95.041
190.798   -94.948
190.808   -94.721
190.818   -94.606
190.827   -94.434
190.837   -94.266
190.847   -94.151
190.857   -93.958
190.866   -93.760
190.876   -93.680
190.886   -93.572
190.895   -93.493
190.905   -93.249
190.915   -93.162
190.925   -93.049
190.934   -92.935
190.944   -92.882
190.954   -92.681
190.964   -92.548
190.973   -92.461
190.983   -92.322
190.993   -92.192
191.002   -92.131
191.012   -92.024
191.022   -91.927
191.032   -91.822
191.041   -91.703
191.051   -91.642
191.061   -91.617
191.071   -91.423
191.080   -91.225
191.090   -91.227
191.100   -91.107
191.109   -90.921
191.119   -90.940
191.129   -90.925
191.139   -90.774
191.148   -90.722
191.158   -90.630
191.168   -90.533
191.177   -90.364
191.187   -90.285
191.197   -90.226
191.207   -90.115
191.216   -90.030
191.226   -90.003
191.236   -89.971
191.246   -89.927
191.255   -89.863
191.265   -89.777
191.275   -89.662
191.284   -89.575
191.294   -89.325
191.304   -89.311
191.314   -89.038
191.323   -89.096
191.333   -88.956
191.343   -88.752
191.352   -88.702
191.362   -88.516
191.372   -88.399
191.382   -88.288
191.391   -88.128
191.401   -87.946
191.411   -87.896
191.421   -87.661
191.430   -87.490
191.440   -87.429
191.450   -87.154
191.459   -87.070
191.469   -86.887
191.479   -86.681
191.489   -86.563
191.498   -86.416
191.508   -86.174
191.518   -86.034
191.528   -85.908
191.537   -85.771
191.547   -85.439
191.557   -85.484
191.566   -85.256
191.576   -84.975
191.586   -84.799
191.596   -84.559
191.605   -84.371
191.615   -84.195
191.625   -83.910
191.634   -83.804
191.644   -83.667
191.654   -83.415
191.664   -83.238
191.673   -83.099
191.683   -82.821
191.693   -82.662
191.703   -82.460
191.712   -82.247
191.722   -82.036
191.732   -81.871
191.741   -81.549
191.751   -81.475
191.761   -81.202
191.771   -81.026
191.780   -80.619
191.790   -80.586
191.800   -80.366
191.809   -80.100
191.819   -79.898
191.829   -79.766
191.839   -79.566
191.848   -79.270
191.858   -79.105
191.868   -78.955
191.878   -78.605
191.887   -78.485
191.897   -78.264
191.907   -78.079
191.916   -77.826
191.926   -77.591
191.936   -77.332
191.946   -77.157
191.955   -76.958
191.965   -76.728
191.975   -76.367
191.985   -76.323
191.994   -76.000
192.004   -75.823
192.014   -75.562
192.023   -75.512
192.033   -75.108
192.043   -74.882
192.053   -74.710
192.062   -74.456
192.072   -74.239
192.082   -74.076
192.091   -73.728
192.101   -73.483
192.111   -73.340
192.121   -73.192
192.130   -72.890
192.140   -72.629
192.150   -72.421
192.160   -72.300
192.169   -71.983
192.179   -71.690
192.189   -71.577
192.198   -71.350
192.208   -70.989
192.218   -70.772
192.228   -70.483
192.237   -70.403
192.247   -70.012
192.257   -69.965
192.266   -69.682
192.276   -69.445
192.286   -69.273
192.296   -68.989
192.305   -68.854
192.315   -68.624
192.325   -68.373
192.335   -68.123
192.344   -67.811
192.354   -67.658
192.364   -67.278
192.373   -67.132
192.383   -66.801
192.393   -66.644
192.403   -66.456
192.412   -66.233
192.422   -66.022
192.432   -65.546
192.442   -65.496
192.451   -65.277
192.461   -65.141
192.471   -64.891
192.480   -64.492
192.490   -64.293
192.500   -64.134
192.510   -63.897
192.519   -63.620
192.529   -63.375
192.539   -63.237
192.548   -62.904
192.558   -62.769
192.568   -62.459
192.578   -62.242
192.587   -62.132
192.597   -61.871
192.607   -61.551
192.617   -61.420
192.626   -61.113
192.636   -60.998
192.646   -60.701
192.655   -60.469
192.665   -60.228
192.675   -59.958
192.685   -59.695
192.694   -59.534
192.704   -59.261
192.714   -59.087
192.723   -58.865
192.733   -58.687
192.743   -58.422
192.753   -58.196
192.762   -58.081
192.772   -57.658
192.782   -57.581
192.792   -57.237
192.801   -57.105
192.811   -56.918
192.821   -56.628
192.830   -56.366
192.840   -56.318
192.850   -55.852
192.860   -55.747
192.869   -55.504
192.879   -55.284
192.889   -55.113
192.899   -54.850
192.908   -54.748



