3/11/2021 4:38:58 PM
Series 1
-----------------------------------------------
Frequency (kHz)	Degrees (Â°)
183.109   49.809
183.118   49.422
183.128   49.702
183.138   49.637
183.147   49.208
183.157   49.567
183.167   48.418
183.177   48.844
183.186   48.523
183.196   47.901
183.206   47.200
183.215   48.756
183.225   47.682
183.235   46.861
183.245   46.516
183.254   46.931
183.264   46.326
183.274   46.298
183.284   46.216
183.293   46.121
183.303   46.103
183.313   45.693
183.322   45.496
183.332   45.033
183.342   45.453
183.352   45.265
183.361   45.406
183.371   45.210
183.381   44.724
183.390   44.671
183.400   43.741
183.410   44.552
183.420   44.183
183.429   43.908
183.439   44.155
183.449   43.580
183.459   43.384
183.468   43.598
183.478   43.741
183.488   42.981
183.497   42.971
183.507   43.140
183.517   42.814
183.527   42.703
183.536   42.390
183.546   42.540
183.556   42.065
183.566   42.200
183.575   42.146
183.585   41.414
183.595   41.491
183.604   41.353
183.614   41.585
183.624   41.459
183.634   40.966
183.643   40.898
183.653   41.633
183.663   41.174
183.672   40.597
183.682   40.933
183.692   40.958
183.702   40.701
183.711   40.350
183.721   40.546
183.731   39.667
183.741   39.761
183.750   40.388
183.760   40.338
183.770   39.560
183.779   39.654
183.789   40.169
183.799   39.981
183.809   39.226
183.818   39.622
183.828   39.232
183.838   39.509
183.847   39.232
183.857   39.503
183.867   38.773
183.877   39.100
183.886   39.139
183.896   39.161
183.906   38.727
183.916   38.871
183.925   38.930
183.935   38.841
183.945   39.094
183.954   38.292
183.964   38.149
183.974   38.049
183.984   38.396
183.993   38.665
184.003   38.302
184.013   38.261
184.023   37.821
184.032   37.751
184.042   37.497
184.052   38.389
184.061   37.450
184.071   38.043
184.081   37.480
184.091   37.662
184.100   37.397
184.110   37.612
184.120   37.559
184.129   37.828
184.139   37.517
184.149   37.679
184.159   37.939
184.168   37.119
184.178   37.586
184.188   37.551
184.198   37.289
184.207   37.117
184.217   37.482
184.227   37.142
184.236   37.073
184.246   36.327
184.256   37.170
184.266   36.972
184.275   36.413
184.285   36.668
184.295   36.688
184.304   37.237
184.314   37.038
184.324   36.362
184.334   36.483
184.343   36.669
184.353   36.840
184.363   36.187
184.373   36.642
184.382   36.514
184.392   36.301
184.402   35.748
184.411   36.602
184.421   36.174
184.431   36.437
184.441   36.704
184.450   35.594
184.460   35.764
184.470   36.509
184.480   36.235
184.489   36.739
184.499   35.882
184.509   35.941
184.518   35.509
184.528   35.673
184.538   35.775
184.548   35.776
184.557   35.585
184.567   35.543
184.577   35.770
184.586   35.697
184.596   35.624
184.606   35.348
184.616   35.412
184.625   35.713
184.635   35.622
184.645   35.721
184.655   34.857
184.664   35.498
184.674   35.405
184.684   35.721
184.693   35.644
184.703   35.480
184.713   35.115
184.723   35.095
184.732   34.785
184.742   35.463
184.752   35.320
184.761   35.354
184.771   34.943
184.781   34.770
184.791   35.191
184.800   35.390
184.810   34.921
184.820   35.132
184.830   34.467
184.839   34.992
184.849   34.679
184.859   34.511
184.868   34.339
184.878   34.850
184.888   34.487
184.898   34.479
184.907   34.673
184.917   34.523
184.927   34.306
184.937   34.585
184.946   34.104
184.956   34.480
184.966   34.218
184.975   34.339
184.985   34.283
184.995   33.940
185.005   33.873
185.014   34.397
185.024   34.389
185.034   33.876
185.043   33.703
185.053   33.594
185.063   33.850
185.073   33.995
185.082   33.768
185.092   33.671
185.102   34.198
185.112   33.503
185.121   33.660
185.131   33.527
185.141   33.474
185.150   33.165
185.160   33.222
185.170   33.864
185.180   33.438
185.189   33.434
185.199   33.004
185.209   33.437
185.218   33.281
185.228   32.801
185.238   33.093
185.248   32.757
185.257   32.529
185.267   32.521
185.277   32.695
185.287   32.059
185.296   32.837
185.306   32.651
185.316   32.461
185.325   32.076
185.335   32.285
185.345   32.509
185.355   31.757
185.364   32.146
185.374   31.638
185.384   31.319
185.394   31.352
185.403   31.332
185.413   31.322
185.423   31.527
185.432   31.418
185.442   31.505
185.452   30.818
185.462   30.829
185.471   31.096
185.481   30.412
185.491   30.650
185.500   30.468
185.510   30.674
185.520   30.274
185.530   30.111
185.539   29.767
185.549   29.777
185.559   29.863
185.569   29.504
185.578   29.501
185.588   29.485
185.598   29.320
185.607   28.924
185.617   28.903
185.627   28.551
185.637   28.586
185.646   28.517
185.656   27.987
185.666   27.877
185.676   27.560
185.685   27.306
185.695   27.593
185.705   27.225
185.714   27.424
185.724   26.932
185.734   26.633
185.744   26.502
185.753   26.900
185.763   26.073
185.773   26.246
185.782   26.240
185.792   25.936
185.802   25.488
185.812   24.882
185.821   25.201
185.831   24.593
185.841   24.322
185.851   24.373
185.860   24.109
185.870   23.874
185.880   23.495
185.889   23.137
185.899   22.976
185.909   22.861
185.919   22.612
185.928   22.392
185.938   22.569
185.948   22.182
185.957   21.872
185.967   21.494
185.977   21.493
185.987   21.468
185.996   20.953
186.006   20.832
186.016   20.374
186.026   19.954
186.035   20.079
186.045   19.437
186.055   19.140
186.064   19.217
186.074   19.041
186.084   18.400
186.094   18.555
186.103   18.487
186.113   18.074
186.123   17.701
186.133   17.695
186.142   17.415
186.152   17.095
186.162   16.844
186.171   16.943
186.181   16.851
186.191   16.318
186.201   15.945
186.210   16.129
186.220   15.684
186.230   15.673
186.239   15.227
186.249   15.088
186.259   15.003
186.269   14.907
186.278   14.874
186.288   14.327
186.298   14.447
186.308   14.174
186.317   13.968
186.327   14.038
186.337   13.913
186.346   13.618
186.356   13.639
186.366   13.385
186.376   13.529
186.385   13.174
186.395   13.285
186.405   13.062
186.414   13.316
186.424   13.154
186.434   13.057
186.444   12.816
186.453   12.962
186.463   12.438
186.473   12.624
186.483   12.730
186.492   12.728
186.502   12.692
186.512   12.516
186.521   12.582
186.531   12.610
186.541   12.496
186.551   12.551
186.560   12.508
186.570   12.465
186.580   12.558
186.590   12.662
186.599   12.688
186.609   12.622
186.619   12.707
186.628   12.770
186.638   12.706
186.648   12.818
186.658   12.841
186.667   12.893
186.677   12.892
186.687   13.107
186.696   13.224
186.706   13.421
186.716   13.290
186.726   13.409
186.735   13.492
186.745   13.499
186.755   13.886
186.765   13.741
186.774   13.752
186.784   13.940
186.794   14.113
186.803   14.218
186.813   14.307
186.823   14.479
186.833   14.491
186.842   14.641
186.852   14.877
186.862   15.008
186.871   15.055
186.881   15.317
186.891   15.410
186.901   15.466
186.910   15.613
186.920   15.939
186.930   16.016
186.940   16.243
186.949   16.323
186.959   16.495
186.969   16.571
186.978   16.843
186.988   17.085
186.998   17.151
187.008   17.345
187.017   17.668
187.027   17.770
187.037   17.905
187.047   18.086
187.056   18.298
187.066   18.521
187.076   18.735
187.085   18.849
187.095   19.168
187.105   19.455
187.115   19.483
187.124   19.801
187.134   19.967
187.144   20.280
187.153   20.455
187.163   20.778
187.173   20.952
187.183   21.165
187.192   21.471
187.202   21.707
187.212   21.944
187.222   22.188
187.231   22.448
187.241   22.774
187.251   23.048
187.260   23.319
187.270   23.659
187.280   23.859
187.290   24.116
187.299   24.504
187.309   24.802
187.319   25.038
187.328   25.429
187.338   25.700
187.348   25.987
187.358   26.319
187.367   26.812
187.377   27.093
187.387   27.440
187.397   27.900
187.406   28.259
187.416   28.655
187.426   29.032
187.435   29.453
187.445   29.843
187.455   30.343
187.465   30.750
187.474   31.229
187.484   31.774
187.494   32.119
187.504   32.975
187.513   33.186
187.523   34.025
187.533   34.401
187.542   35.124
187.552   35.751
187.562   36.416
187.572   37.042
187.581   37.782
187.591   38.560
187.601   39.311
187.610   40.168
187.620   41.066
187.630   41.944
187.640   42.900
187.649   43.924
187.659   45.002
187.669   46.108
187.679   47.294
187.688   48.532
187.698   49.874
187.708   51.317
187.717   52.791
187.727   54.408
187.737   56.113
187.747   57.919
187.756   59.864
187.766   61.890
187.776   64.111
187.785   66.388
187.795   68.875
187.805   71.503
187.815   74.286
187.824   77.242
187.834   80.374
187.844   83.619
187.854   87.039
187.863   90.603
187.873   94.333
187.883   98.159
187.892   102.101
187.902   106.116
187.912   110.181
187.922   114.186
187.931   118.181
187.941   122.146
187.951   125.981
187.961   129.673
187.970   133.184
187.980   136.521
187.990   139.657
187.999   142.575
188.009   145.284
188.019   147.796
188.029   150.092
188.038   152.251
188.048   154.229
188.058   156.074
188.067   157.755
188.077   159.356
188.087   160.806
188.097   162.157
188.106   163.428
188.116   164.625
188.126   165.758
188.136   166.788
188.145   167.758
188.155   168.728
188.165   169.550
188.174   170.386
188.184   171.190
188.194   171.942
188.204   172.597
188.213   173.272
188.223   173.878
188.233   174.482
188.243   175.085
188.252   175.607
188.262   176.100
188.272   176.594
188.281   177.066
188.291   177.521
188.301   177.912
188.311   178.378
188.320   178.755
188.330   179.152
188.340   179.519
188.349   179.928
188.359   -179.991
188.369   -179.633
188.379   -179.287
188.388   -179.019
188.398   -178.727
188.408   -178.373
188.418   -178.225
188.427   -177.845
188.437   -177.608
188.447   -177.333
188.456   -177.117
188.466   -176.878
188.476   -176.660
188.486   -176.503
188.495   -176.245
188.505   -176.074
188.515   -175.930
188.524   -175.718
188.534   -175.473
188.544   -175.330
188.554   -175.054
188.563   -174.902
188.573   -174.726
188.583   -174.505
188.593   -174.374
188.602   -174.213
188.612   -174.057
188.622   -173.966
188.631   -173.841
188.641   -173.662
188.651   -173.462
188.661   -173.369
188.670   -173.239
188.680   -172.984
188.690   -173.017
188.700   -172.822
188.709   -172.744
188.719   -172.491
188.729   -172.420
188.738   -172.370
188.748   -172.189
188.758   -172.028
188.768   -171.980
188.777   -171.885
188.787   -171.833
188.797   -171.793
188.806   -171.601
188.816   -171.536
188.826   -171.351
188.836   -171.234
188.845   -171.194
188.855   -171.039
188.865   -170.931
188.875   -170.917
188.884   -170.790
188.894   -170.799
188.904   -170.679
188.913   -170.556
188.923   -170.376
188.933   -170.260
188.943   -170.372
188.952   -170.315
188.962   -170.198
188.972   -170.033
188.981   -170.034
188.991   -169.862
189.001   -169.700
189.011   -169.532
189.020   -169.723
189.030   -169.637
189.040   -169.582
189.050   -169.460
189.059   -169.256
189.069   -169.360
189.079   -169.298
189.088   -169.396
189.098   -168.994
189.108   -169.029
189.118   -168.831
189.127   -169.028
189.137   -168.742
189.147   -168.572
189.157   -168.732
189.166   -168.565
189.176   -168.652
189.186   -168.596
189.195   -168.495
189.205   -168.342
189.215   -168.281
189.225   -168.208
189.234   -168.190
189.244   -168.134
189.254   -167.978
189.263   -168.108
189.273   -168.058
189.283   -167.878
189.293   -167.824
189.302   -167.959
189.312   -167.869
189.322   -167.555
189.332   -167.624
189.341   -167.561
189.351   -167.424
189.361   -167.357
189.370   -167.526
189.380   -167.303
189.390   -167.286
189.400   -167.219
189.409   -167.124
189.419   -166.966
189.429   -167.002
189.438   -166.980
189.448   -167.017
189.458   -167.043
189.468   -166.692
189.477   -166.700
189.487   -166.653
189.497   -166.623
189.507   -166.758
189.516   -166.593
189.526   -166.311
189.536   -166.381
189.545   -166.267
189.555   -166.157
189.565   -166.392
189.575   -166.140
189.584   -166.208
189.594   -166.053
189.604   -166.048
189.614   -166.168
189.623   -165.934
189.633   -165.856
189.643   -165.896
189.652   -165.987
189.662   -165.680
189.672   -165.571
189.682   -165.527
189.691   -165.426
189.701   -165.498
189.711   -165.676
189.720   -165.523
189.730   -165.545
189.740   -165.319
189.750   -165.252
189.759   -165.345
189.769   -165.170
189.779   -164.938
189.789   -165.247
189.798   -165.367
189.808   -164.866
189.818   -164.736
189.827   -164.983
189.837   -164.654
189.847   -164.924
189.857   -164.789
189.866   -164.708
189.876   -164.744
189.886   -164.709
189.895   -164.468
189.905   -164.505
189.915   -164.580
189.925   -164.411
189.934   -164.481
189.944   -164.356
189.954   -164.335
189.964   -164.164
189.973   -164.155
189.983   -164.371
189.993   -164.122
190.002   -164.241
190.012   -164.008
190.022   -163.741
190.032   -163.940
190.041   -164.207
190.051   -163.667
190.061   -163.837
190.071   -163.879
190.080   -163.562
190.090   -163.722
190.100   -163.553
190.109   -163.476
190.119   -163.699
190.129   -163.441
190.139   -163.511
190.148   -163.473
190.158   -163.639
190.168   -163.413
190.177   -163.272
190.187   -163.440
190.197   -163.078
190.207   -163.204
190.216   -163.108
190.226   -162.929
190.236   -163.053
190.246   -162.980
190.255   -162.631
190.265   -162.903
190.275   -162.735
190.284   -162.550
190.294   -162.602
190.304   -162.628
190.314   -162.263
190.323   -162.753
190.333   -162.766
190.343   -162.551
190.352   -162.575
190.362   -162.451
190.372   -162.730
190.382   -162.234
190.391   -162.097
190.401   -162.103
190.411   -162.211
190.421   -162.122
190.430   -162.126
190.440   -162.414
190.450   -162.241
190.459   -162.233
190.469   -161.851
190.479   -161.866
190.489   -162.041
190.498   -161.905
190.508   -161.958
190.518   -161.692
190.528   -161.973
190.537   -161.806
190.547   -161.667
190.557   -161.848
190.566   -161.596
190.576   -161.634
190.586   -161.831
190.596   -161.943
190.605   -161.727
190.615   -161.689
190.625   -161.435
190.634   -161.334
190.644   -161.403
190.654   -161.666
190.664   -161.164
190.673   -161.069
190.683   -161.530
190.693   -161.066
190.703   -161.939
190.712   -160.782
190.722   -161.323
190.732   -161.414
190.741   -161.366
190.751   -161.089
190.761   -161.212
190.771   -161.218
190.780   -161.255
190.790   -161.034
190.800   -160.855
190.810   -161.304
190.819   -160.969
190.829   -161.154
190.839   -160.965
190.848   -160.415
190.858   -160.880
190.868   -160.971
190.878   -160.673
190.887   -160.940
190.897   -160.849
190.907   -160.718
190.916   -160.604
190.926   -161.256
190.936   -160.501
190.946   -160.411
190.955   -160.608
190.965   -160.891
190.975   -160.621
190.985   -160.769
190.994   -160.653
191.004   -160.557
191.014   -160.416
191.023   -160.690
191.033   -160.578
191.043   -161.092
191.053   -160.624
191.062   -160.451
191.072   -160.880
191.082   -160.619
191.091   -160.182
191.101   -160.925
191.111   -160.676
191.121   -160.200
191.130   -160.727
191.140   -160.398
191.150   -160.752
191.160   -160.367
191.169   -160.704
191.179   -160.738
191.189   -160.675
191.198   -160.578
191.208   -160.852
191.218   -160.597
191.228   -160.413
191.237   -160.735
191.247   -160.520
191.257   -161.024
191.267   -161.152
191.276   -160.875
191.286   -161.277
191.296   -160.902
191.305   -160.801
191.315   -160.767
191.325   -160.873
191.335   -160.937
191.344   -160.775
191.354   -161.171
191.364   -160.722
191.373   -161.311
191.383   -161.268
191.393   -161.435
191.403   -161.304
191.412   -161.328
191.422   -161.398
191.432   -161.519
191.442   -161.444
191.451   -161.518
191.461   -161.434
191.471   -161.419
191.480   -161.938
191.490   -161.690
191.500   -162.059
191.510   -161.939
191.519   -161.783
191.529   -161.766
191.539   -161.968
191.548   -161.913
191.558   -161.886
191.568   -161.719
191.578   -161.968
191.587   -161.868
191.597   -161.750
191.607   -162.144
191.617   -162.430
191.626   -161.907
191.636   -161.418
191.646   -161.557
191.655   -161.915
191.665   -162.185
191.675   -161.884
191.685   -161.876
191.694   -162.111
191.704   -161.730
191.714   -162.322
191.724   -162.155
191.733   -162.305
191.743   -162.191
191.753   -162.164
191.762   -162.078
191.772   -162.034
191.782   -162.005
191.792   -162.081
191.801   -161.839
191.811   -162.036
191.821   -162.299
191.830   -161.939
191.840   -161.948
191.850   -161.776
191.860   -162.346
191.869   -162.037
191.879   -162.173
191.889   -161.594
191.899   -162.123
191.908   -161.969
191.918   -161.880
191.928   -161.776
191.937   -161.557
191.947   -162.537
191.957   -161.913
191.967   -162.214
191.976   -161.914
191.986   -161.820
191.996   -162.312
192.005   -161.833
192.015   -161.732
192.025   -161.429
192.035   -161.593
192.044   -162.257
192.054   -162.350
192.064   -162.281
192.074   -161.936
192.083   -162.261
192.093   -161.970
192.103   -162.291
192.112   -161.958
192.122   -161.956
192.132   -162.013
192.142   -161.724
192.151   -161.455
192.161   -161.387
192.171   -162.052
192.181   -161.310
192.190   -162.351
192.200   -162.168
192.210   -162.080
192.219   -162.174
192.229   -161.861
192.239   -161.678
192.249   -161.818
192.258   -162.037
192.268   -161.681
192.278   -161.577
192.287   -162.089
192.297   -161.901
192.307   -161.832
192.317   -161.607
192.326   -161.754
192.336   -162.203
192.346   -161.868
192.356   -161.885
192.365   -161.747
192.375   -161.426
192.385   -161.487
192.394   -161.523
192.404   -162.112
192.414   -161.984
192.424   -162.050
192.433   -161.598
192.443   -161.610
192.453   -161.732
192.462   -161.998
192.472   -161.441
192.482   -161.572
192.492   -162.139
192.501   -162.018
192.511   -161.650
192.521   -161.415
192.531   -161.822
192.540   -161.643
192.550   -162.071
192.560   -162.349
192.569   -161.825
192.579   -162.161
192.589   -161.161
192.599   -162.037
192.608   -161.763
192.618   -161.790
192.628   -161.900
192.638   -162.373
192.647   -161.903
192.657   -161.220
192.667   -161.363
192.676   -161.576
192.686   -161.533
192.696   -161.323
192.706   -161.500
192.715   -161.834
192.725   -161.534
192.735   -161.223
192.744   -161.572
192.754   -161.007
192.764   -162.000
192.774   -161.820
192.783   -161.742
192.793   -161.982
192.803   -161.778
192.813   -162.384
192.822   -161.788
192.832   -161.416
192.842   -160.951
192.851   -161.239
192.861   -161.095
192.871   -161.659
192.881   -161.533
192.890   -161.041
192.900   -161.423
192.910   -161.369
192.919   -161.576
192.929   -161.495
192.939   -161.543
192.949   -161.435
192.958   -161.308
192.968   -161.439
192.978   -160.958
192.988   -161.148
192.997   -161.808
193.007   -161.328
193.017   -161.832
193.026   -161.468
193.036   -161.561
193.046   -160.917
193.056   -161.406
193.065   -161.881
193.075   -161.183
193.085   -161.564
193.095   -161.022
193.104   -161.304



