3/10/2021 9:50:08 AM
Series 1
-----------------------------------------------
Frequency (kHz)	Degrees (Â°)
183.109   49.919
183.118   48.470
183.128   48.913
183.138   47.537
183.147   49.024
183.157   48.105
183.167   48.763
183.177   47.381
183.186   47.895
183.196   47.612
183.206   46.704
183.215   47.379
183.225   47.143
183.235   46.211
183.245   45.096
183.254   45.747
183.264   45.576
183.274   45.954
183.284   45.804
183.293   45.176
183.303   44.256
183.313   44.650
183.322   43.810
183.332   44.617
183.342   43.858
183.352   44.146
183.361   44.064
183.371   43.133
183.381   43.076
183.390   43.501
183.400   42.722
183.410   43.437
183.420   42.039
183.429   42.350
183.439   41.759
183.449   41.482
183.459   40.717
183.468   40.971
183.478   41.198
183.488   40.457
183.497   40.926
183.507   40.657
183.517   40.255
183.527   40.174
183.536   39.894
183.546   39.621
183.556   38.557
183.566   38.325
183.575   38.145
183.585   38.917
183.595   37.797
183.604   37.546
183.614   37.284
183.624   35.807
183.634   37.357
183.643   36.587
183.653   35.801
183.663   36.053
183.672   35.043
183.682   35.828
183.692   34.379
183.702   35.298
183.711   34.636
183.721   34.412
183.731   32.926
183.741   32.805
183.750   32.342
183.760   33.905
183.770   32.077
183.779   32.912
183.789   32.348
183.799   30.992
183.809   31.039
183.818   30.577
183.828   29.778
183.838   29.306
183.847   30.725
183.857   30.172
183.867   28.490
183.877   27.547
183.886   27.943
183.896   28.279
183.906   27.577
183.916   26.637
183.925   26.052
183.935   25.910
183.945   25.394
183.954   24.955
183.964   24.312
183.974   23.825
183.984   23.362
183.993   22.244
184.003   22.931
184.013   21.973
184.023   22.084
184.032   21.235
184.042   20.593
184.052   20.468
184.061   20.131
184.071   19.732
184.081   19.850
184.091   17.994
184.100   17.818
184.110   17.651
184.120   15.285
184.129   15.620
184.139   15.656
184.149   14.754
184.159   13.653
184.168   14.812
184.178   13.181
184.188   12.899
184.198   11.880
184.207   11.169
184.217   11.827
184.227   10.544
184.236   9.417
184.246   10.132
184.256   9.724
184.266   9.391
184.275   8.219
184.285   7.751
184.295   7.199
184.304   6.353
184.314   6.650
184.324   5.455
184.334   5.426
184.343   4.623
184.353   3.636
184.363   3.945
184.373   4.106
184.382   3.464
184.392   1.931
184.402   0.418
184.411   2.190
184.421   1.504
184.431   1.605
184.441   0.710
184.450   0.984
184.460   -0.213
184.470   0.124
184.480   -0.373
184.489   0.002
184.499   -0.159
184.509   -0.917
184.518   -0.463
184.528   -0.330
184.538   -0.537
184.548   -0.939
184.557   -0.725
184.567   -0.709
184.577   -1.035
184.586   -1.520
184.596   -1.175
184.606   -1.703
184.616   -1.827
184.625   -1.826
184.635   -1.958
184.645   -2.245
184.655   -2.183
184.664   -1.758
184.674   -2.474
184.684   -2.360
184.693   -2.254
184.703   -1.646
184.713   -2.395
184.723   -2.331
184.732   -2.244
184.742   -2.108
184.752   -2.523
184.761   -1.984
184.771   -1.787
184.781   -1.284
184.791   -1.336
184.800   -1.589
184.810   -1.663
184.820   -1.592
184.830   -1.533
184.839   -1.521
184.849   -0.809
184.859   -0.352
184.868   -0.213
184.878   -0.109
184.888   -0.199
184.898   -0.015
184.907   0.049
184.917   0.002
184.927   0.036
184.937   -0.119
184.946   0.025
184.956   0.633
184.966   0.448
184.975   0.626
184.985   0.693
184.995   1.266
185.005   1.345
185.014   1.582
185.024   2.002
185.034   2.380
185.043   2.277
185.053   2.687
185.063   2.780
185.073   3.190
185.082   3.170
185.092   4.011
185.102   3.780
185.112   4.098
185.121   4.361
185.131   4.541
185.141   4.939
185.150   4.406
185.160   5.398
185.170   5.449
185.180   6.051
185.189   6.065
185.199   6.295
185.209   6.425
185.218   6.513
185.228   7.226
185.238   7.216
185.248   7.478
185.257   7.915
185.267   8.227
185.277   7.984
185.287   8.683
185.296   8.842
185.306   8.969
185.316   9.327
185.325   9.488
185.335   9.624
185.345   9.831
185.355   9.924
185.364   10.705
185.374   10.649
185.384   10.751
185.394   11.040
185.403   11.329
185.413   11.970
185.423   11.828
185.432   12.293
185.442   12.724
185.452   12.073
185.462   12.588
185.471   13.079
185.481   13.061
185.491   13.034
185.500   13.435
185.510   13.627
185.520   13.918
185.530   14.262
185.539   14.447
185.549   14.518
185.559   14.842
185.569   15.091
185.578   15.134
185.588   15.536
185.598   15.554
185.607   15.982
185.617   16.373
185.627   16.234
185.637   16.529
185.646   16.848
185.656   16.946
185.666   16.755
185.676   17.510
185.685   17.472
185.695   17.686
185.705   17.838
185.714   17.759
185.724   18.244
185.734   18.734
185.744   18.673
185.753   18.657
185.763   18.698
185.773   19.024
185.782   19.274
185.792   19.272
185.802   19.795
185.812   19.828
185.821   20.103
185.831   20.135
185.841   20.224
185.851   20.491
185.860   20.725
185.870   20.642
185.880   20.832
185.889   20.970
185.899   21.458
185.909   21.351
185.919   21.594
185.928   21.900
185.938   21.825
185.948   21.957
185.957   22.285
185.967   22.271
185.977   22.406
185.987   22.706
185.996   22.820
186.006   22.637
186.016   23.277
186.026   23.179
186.035   23.503
186.045   23.300
186.055   23.827
186.064   24.042
186.074   24.064
186.084   24.122
186.094   24.388
186.103   24.391
186.113   24.647
186.123   24.643
186.133   24.960
186.142   24.820
186.152   25.256
186.162   25.462
186.171   25.585
186.181   25.545
186.191   25.698
186.201   25.757
186.210   26.200
186.220   26.078
186.230   26.305
186.239   26.285
186.249   26.321
186.259   26.661
186.269   26.670
186.278   26.858
186.288   27.048
186.298   27.163
186.308   27.337
186.317   27.532
186.327   27.410
186.337   27.599
186.346   27.676
186.356   27.762
186.366   27.909
186.376   28.109
186.385   28.202
186.395   28.393
186.405   28.488
186.414   28.636
186.424   28.552
186.434   28.716
186.444   28.871
186.453   29.079
186.463   29.236
186.473   29.269
186.483   29.288
186.492   29.476
186.502   29.540
186.512   29.924
186.521   29.808
186.531   29.889
186.541   30.006
186.551   30.182
186.560   30.215
186.570   30.331
186.580   30.446
186.590   30.573
186.599   30.766
186.609   30.726
186.619   31.030
186.628   31.127
186.638   31.051
186.648   31.163
186.658   31.159
186.667   31.228
186.677   31.543
186.687   31.669
186.696   31.523
186.706   31.822
186.716   31.849
186.726   31.850
186.735   32.147
186.745   32.351
186.755   32.354
186.765   32.606
186.774   32.665
186.784   32.772
186.794   32.755
186.803   32.928
186.813   33.061
186.823   33.250
186.833   33.134
186.842   33.315
186.852   33.572
186.862   33.535
186.871   33.762
186.881   33.800
186.891   33.847
186.901   33.881
186.910   34.112
186.920   34.202
186.930   34.303
186.940   34.579
186.949   34.575
186.959   34.813
186.969   34.736
186.978   34.870
186.988   35.047
186.998   35.199
187.008   35.315
187.017   35.371
187.027   35.615
187.037   35.756
187.047   35.730
187.056   35.911
187.066   36.063
187.076   36.190
187.085   36.425
187.095   36.506
187.105   36.651
187.115   36.751
187.124   36.825
187.134   37.084
187.144   37.210
187.153   37.372
187.163   37.484
187.173   37.738
187.183   37.892
187.192   37.895
187.202   38.168
187.212   38.444
187.222   38.548
187.231   38.683
187.241   38.906
187.251   39.139
187.260   39.305
187.270   39.459
187.280   39.704
187.290   39.916
187.299   40.153
187.309   40.400
187.319   40.622
187.328   40.861
187.338   41.080
187.348   41.345
187.358   41.618
187.367   41.910
187.377   42.213
187.387   42.444
187.397   42.700
187.406   43.100
187.416   43.434
187.426   43.733
187.435   44.148
187.445   44.473
187.455   44.858
187.465   45.237
187.474   45.680
187.484   46.131
187.494   46.463
187.504   47.211
187.513   47.354
187.523   48.233
187.533   48.541
187.542   49.244
187.552   49.834
187.562   50.439
187.572   51.173
187.581   51.856
187.591   52.587
187.601   53.344
187.610   54.196
187.620   55.091
187.630   56.034
187.640   57.028
187.649   58.095
187.659   59.229
187.669   60.402
187.679   61.680
187.688   63.045
187.698   64.457
187.708   66.023
187.717   67.673
187.727   69.450
187.737   71.324
187.747   73.364
187.756   75.512
187.766   77.770
187.776   80.216
187.785   82.817
187.795   85.578
187.805   88.539
187.815   91.570
187.824   94.878
187.834   98.277
187.844   101.832
187.854   105.525
187.863   109.364
187.873   113.299
187.883   117.269
187.892   121.312
187.902   125.340
187.912   129.290
187.922   133.198
187.931   136.962
187.941   140.603
187.951   144.048
187.961   147.310
187.970   150.360
187.980   153.182
187.990   155.808
187.999   158.231
188.009   160.476
188.019   162.512
188.029   164.415
188.038   166.165
188.048   167.813
188.058   169.315
188.067   170.718
188.077   172.050
188.087   173.278
188.097   174.350
188.106   175.397
188.116   176.432
188.126   177.328
188.136   178.202
188.145   179.059
188.155   179.820
188.165   -179.536
188.174   -178.887
188.184   -178.180
188.194   -177.548
188.204   -176.957
188.213   -176.442
188.223   -175.893
188.233   -175.412
188.243   -174.931
188.252   -174.470
188.262   -173.995
188.272   -173.588
188.281   -173.212
188.291   -172.787
188.301   -172.456
188.311   -172.098
188.320   -171.778
188.330   -171.396
188.340   -171.143
188.349   -170.848
188.359   -170.583
188.369   -170.249
188.379   -169.966
188.388   -169.717
188.398   -169.506
188.408   -169.232
188.418   -168.947
188.427   -168.810
188.437   -168.523
188.447   -168.309
188.456   -168.167
188.466   -167.893
188.476   -167.667
188.486   -167.465
188.495   -167.296
188.505   -167.146
188.515   -166.853
188.524   -166.884
188.534   -166.545
188.544   -166.504
188.554   -166.411
188.563   -166.147
188.573   -166.002
188.583   -165.946
188.593   -165.686
188.602   -165.556
188.612   -165.477
188.622   -165.330
188.631   -165.205
188.641   -165.074
188.651   -164.967
188.661   -164.772
188.670   -164.763
188.680   -164.473
188.690   -164.468
188.700   -164.158
188.709   -164.206
188.719   -164.053
188.729   -164.104
188.738   -163.892
188.748   -163.767
188.758   -163.503
188.768   -163.493
188.777   -163.414
188.787   -163.241
188.797   -163.318
188.806   -163.212
188.816   -162.977
188.826   -162.983
188.836   -162.887
188.845   -162.836
188.855   -162.645
188.865   -162.555
188.875   -162.410
188.884   -162.416
188.894   -162.260
188.904   -162.309
188.913   -162.072
188.923   -162.099
188.933   -161.995
188.943   -161.851
188.952   -161.644
188.962   -161.718
188.972   -161.561
188.981   -161.541
188.991   -161.476
189.001   -161.314
189.011   -161.366
189.020   -161.180
189.030   -161.246
189.040   -161.143
189.050   -161.046
189.059   -160.903
189.069   -160.950
189.079   -160.868
189.088   -160.728
189.098   -160.746
189.108   -160.598
189.118   -160.654
189.127   -160.359
189.137   -160.580
189.147   -160.406
189.157   -160.254
189.166   -160.141
189.176   -160.184
189.186   -160.097
189.195   -160.021
189.205   -159.751
189.215   -159.827
189.225   -159.766
189.234   -159.586
189.244   -159.794
189.254   -159.734
189.263   -159.503
189.273   -159.458
189.283   -159.228
189.293   -159.340
189.302   -159.298
189.312   -159.373
189.322   -159.430
189.332   -159.142
189.341   -159.165
189.351   -159.009
189.361   -158.996
189.370   -158.830
189.380   -158.853
189.390   -158.779
189.400   -158.957
189.409   -158.447
189.419   -158.576
189.429   -158.426
189.438   -158.402
189.448   -158.481
189.458   -158.513
189.468   -158.217
189.477   -158.228
189.487   -158.194
189.497   -158.488
189.507   -157.947
189.516   -158.152
189.526   -158.094
189.536   -158.023
189.545   -157.912
189.555   -157.769
189.565   -157.999
189.575   -157.946
189.584   -157.924
189.594   -157.512
189.604   -157.915
189.614   -157.874
189.623   -157.466
189.633   -157.580
189.643   -157.326
189.652   -157.419
189.662   -157.327
189.672   -157.438
189.682   -157.207
189.691   -157.154
189.701   -157.125
189.711   -157.133
189.720   -156.793
189.730   -157.281
189.740   -157.173
189.750   -156.976
189.759   -157.032
189.769   -157.000
189.779   -156.738
189.789   -157.077
189.798   -156.685
189.808   -156.649
189.818   -156.656
189.827   -156.917
189.837   -156.629
189.847   -156.668
189.857   -156.753
189.866   -156.656
189.876   -156.632
189.886   -156.735
189.895   -156.519
189.905   -156.513
189.915   -156.502
189.925   -156.411
189.934   -156.690
189.944   -156.598
189.954   -156.249
189.964   -156.473
189.973   -156.436
189.983   -156.597
189.993   -156.655
190.002   -156.458
190.012   -156.539
190.022   -156.345
190.032   -155.857
190.041   -155.997
190.051   -156.514
190.061   -156.371
190.071   -156.363
190.080   -156.224
190.090   -156.544
190.100   -156.260
190.109   -156.050
190.119   -156.134
190.129   -156.241
190.139   -156.180
190.148   -156.213
190.158   -156.223
190.168   -156.258
190.177   -156.292
190.187   -155.906
190.197   -156.377
190.207   -156.127
190.216   -156.173
190.226   -156.388
190.236   -156.272
190.246   -156.089
190.255   -156.487
190.265   -156.302
190.275   -156.218
190.284   -156.231
190.294   -156.240
190.304   -156.011
190.314   -156.401
190.323   -156.387
190.333   -156.388
190.343   -156.064
190.352   -156.524
190.362   -156.318
190.372   -156.277
190.382   -156.512
190.391   -156.133
190.401   -156.185
190.411   -156.255
190.421   -156.305
190.430   -156.606
190.440   -156.045
190.450   -156.733
190.459   -156.595
190.469   -156.509
190.479   -156.524
190.489   -156.435
190.498   -156.399
190.508   -156.967
190.518   -156.655
190.528   -156.478
190.537   -156.665
190.547   -156.711
190.557   -156.350
190.566   -156.863
190.576   -156.446
190.586   -156.350
190.596   -156.247
190.605   -156.461
190.615   -156.311
190.625   -156.417
190.634   -156.447
190.644   -156.364
190.654   -156.077
190.664   -156.594
190.673   -157.193
190.683   -156.256
190.693   -156.496
190.703   -156.531
190.712   -156.862
190.722   -156.572
190.732   -156.842
190.741   -156.629
190.751   -156.614
190.761   -156.526
190.771   -156.164
190.780   -157.178
190.790   -156.746
190.800   -156.459
190.810   -156.636
190.819   -156.417
190.829   -156.996
190.839   -156.170
190.848   -156.326
190.858   -156.664
190.868   -156.237
190.878   -156.519
190.887   -156.934
190.897   -156.402
190.907   -156.392
190.916   -156.222
190.926   -156.426
190.936   -156.515
190.946   -156.603
190.955   -157.018
190.965   -156.310
190.975   -156.728
190.985   -156.686
190.994   -156.714
191.004   -156.340
191.014   -156.446
191.023   -157.062
191.033   -156.607
191.043   -156.650
191.053   -156.720
191.062   -156.460
191.072   -157.070
191.082   -156.375
191.091   -156.470
191.101   -156.850
191.111   -156.341
191.121   -156.377
191.130   -156.652
191.140   -156.123
191.150   -156.667
191.160   -156.732
191.169   -156.314
191.179   -156.310
191.189   -156.349
191.198   -156.640
191.208   -156.377
191.218   -156.426
191.228   -156.577
191.237   -156.744
191.247   -156.310
191.257   -156.764
191.267   -156.392
191.276   -156.261
191.286   -156.537
191.296   -156.354
191.305   -156.222
191.315   -156.507
191.325   -156.572
191.335   -156.217
191.344   -156.935
191.354   -156.517
191.364   -156.396
191.373   -156.658
191.383   -156.081
191.393   -156.602
191.403   -156.609
191.412   -155.971
191.422   -156.451
191.432   -156.407
191.442   -156.934
191.451   -156.354
191.461   -156.634
191.471   -155.982
191.480   -156.282
191.490   -156.295
191.500   -156.426
191.510   -156.698
191.519   -156.579
191.529   -156.237
191.539   -156.217
191.548   -156.622
191.558   -156.487
191.568   -156.348
191.578   -156.793
191.587   -156.248
191.597   -156.366
191.607   -156.173
191.617   -156.418
191.626   -156.407
191.636   -156.372
191.646   -156.614
191.655   -156.468
191.665   -156.214
191.675   -156.513
191.685   -156.534
191.694   -156.192
191.704   -157.203
191.714   -156.161
191.724   -156.300
191.733   -156.965
191.743   -156.635
191.753   -156.318
191.762   -156.340
191.772   -156.452
191.782   -156.009
191.792   -156.597
191.801   -156.064
191.811   -156.182
191.821   -156.676
191.830   -156.405
191.840   -156.763
191.850   -156.399
191.860   -156.699
191.869   -156.166
191.879   -155.989
191.889   -156.481
191.899   -156.440
191.908   -156.458
191.918   -155.963
191.928   -155.587
191.937   -155.803
191.947   -155.528
191.957   -156.471
191.967   -156.384
191.976   -155.819
191.986   -156.160
191.996   -156.121
192.005   -155.702
192.015   -156.192
192.025   -156.156
192.035   -156.492
192.044   -156.405
192.054   -156.041
192.064   -156.463
192.074   -156.051
192.083   -155.909
192.093   -156.032
192.103   -155.783
192.112   -156.252
192.122   -156.041
192.132   -156.795
192.142   -155.908
192.151   -155.741
192.161   -156.266
192.171   -155.453
192.181   -155.862
192.190   -155.937
192.200   -156.554
192.210   -155.920
192.219   -155.998
192.229   -155.901
192.239   -155.786
192.249   -155.785
192.258   -155.824
192.268   -156.104
192.278   -155.686
192.287   -156.130
192.297   -155.353
192.307   -155.522
192.317   -155.647
192.326   -155.909
192.336   -155.743
192.346   -155.497
192.356   -155.396
192.365   -155.521
192.375   -155.322
192.385   -155.556
192.394   -156.242
192.404   -155.099
192.414   -155.460
192.424   -155.865
192.433   -155.379
192.443   -154.899
192.453   -156.012
192.462   -155.482
192.472   -155.728
192.482   -155.449
192.492   -155.856
192.501   -155.432
192.511   -155.366
192.521   -155.186
192.531   -155.422
192.540   -155.109
192.550   -155.601
192.560   -155.164
192.569   -155.422
192.579   -155.376
192.589   -155.589
192.599   -154.808
192.608   -155.413
192.618   -155.194
192.628   -155.486
192.638   -154.827
192.647   -154.813
192.657   -155.225
192.667   -155.374
192.676   -155.323
192.686   -154.741
192.696   -154.898
192.706   -155.576
192.715   -155.258
192.725   -154.903
192.735   -155.004
192.744   -154.765
192.754   -154.727
192.764   -155.070
192.774   -154.035
192.783   -154.631
192.793   -154.565
192.803   -154.422
192.813   -154.870
192.822   -154.323
192.832   -153.812
192.842   -154.650
192.851   -153.998
192.861   -154.601
192.871   -153.973
192.881   -154.321
192.890   -154.510
192.900   -153.878
192.910   -154.195
192.919   -154.087
192.929   -154.389
192.939   -154.536
192.949   -154.402
192.958   -154.115
192.968   -154.282
192.978   -154.029
192.988   -153.584
192.997   -153.370
193.007   -153.634
193.017   -153.390
193.026   -153.337
193.036   -153.301
193.046   -153.314
193.056   -153.788
193.065   -153.235
193.075   -153.849
193.085   -153.409
193.095   -153.639
193.104   -153.284



