3/10/2021 9:48:43 AM
Series 1
-----------------------------------------------
Frequency (kHz)	Degrees (Â°)
183.109   52.014
183.118   51.457
183.128   50.517
183.138   50.061
183.147   50.897
183.157   49.959
183.167   49.550
183.177   49.963
183.186   49.267
183.196   50.023
183.206   48.711
183.215   48.968
183.225   48.254
183.235   48.630
183.245   48.253
183.254   48.367
183.264   48.647
183.274   47.250
183.284   47.388
183.293   46.582
183.303   46.329
183.313   46.066
183.322   45.984
183.332   46.079
183.342   46.513
183.352   44.505
183.361   45.219
183.371   45.740
183.381   44.600
183.390   45.523
183.400   44.398
183.410   43.434
183.420   44.436
183.429   43.884
183.439   43.673
183.449   43.734
183.459   43.155
183.468   42.490
183.478   43.332
183.488   42.671
183.497   42.599
183.507   41.564
183.517   41.395
183.527   41.867
183.536   40.898
183.546   40.768
183.556   41.816
183.566   40.530
183.575   40.192
183.585   39.943
183.595   38.602
183.604   39.483
183.614   38.618
183.624   38.550
183.634   38.534
183.643   37.709
183.653   37.710
183.663   37.823
183.672   35.562
183.682   37.314
183.692   36.036
183.702   35.795
183.711   35.237
183.721   35.222
183.731   34.809
183.741   35.682
183.750   34.395
183.760   33.674
183.770   34.107
183.779   33.128
183.789   33.216
183.799   32.930
183.809   32.775
183.818   31.969
183.828   31.601
183.838   31.419
183.847   29.581
183.857   29.879
183.867   30.655
183.877   28.569
183.886   28.573
183.896   29.041
183.906   28.896
183.916   28.321
183.925   28.127
183.935   27.408
183.945   26.428
183.954   26.900
183.964   25.692
183.974   25.555
183.984   25.454
183.993   24.326
184.003   24.109
184.013   23.449
184.023   22.135
184.032   22.173
184.042   20.678
184.052   21.069
184.061   19.984
184.071   20.043
184.081   19.582
184.091   19.161
184.100   19.016
184.110   17.664
184.120   16.808
184.129   16.804
184.139   16.503
184.149   16.326
184.159   15.193
184.168   14.994
184.178   14.368
184.188   14.034
184.198   13.509
184.207   13.984
184.217   12.384
184.227   12.536
184.236   11.530
184.246   10.950
184.256   10.015
184.266   10.589
184.275   9.501
184.285   8.670
184.295   9.308
184.304   7.312
184.314   7.340
184.324   6.356
184.334   6.081
184.343   6.626
184.353   5.715
184.363   4.773
184.373   5.559
184.382   4.012
184.392   4.045
184.402   4.223
184.411   3.295
184.421   1.959
184.431   3.026
184.441   2.506
184.450   2.835
184.460   2.018
184.470   1.475
184.480   0.844
184.489   1.249
184.499   0.127
184.509   0.239
184.518   0.347
184.528   0.121
184.538   0.197
184.548   -0.094
184.557   -0.102
184.567   0.360
184.577   0.060
184.586   0.140
184.596   -0.161
184.606   -0.212
184.616   -0.218
184.625   -0.382
184.635   -0.389
184.645   -0.182
184.655   -0.412
184.664   -0.276
184.674   -0.310
184.684   -0.660
184.693   -0.691
184.703   -0.329
184.713   -0.216
184.723   -0.162
184.732   -0.469
184.742   -0.160
184.752   -0.068
184.761   -0.462
184.771   -0.018
184.781   -0.261
184.791   0.049
184.800   -0.017
184.810   -0.111
184.820   -0.152
184.830   -0.013
184.839   0.255
184.849   0.271
184.859   0.016
184.868   0.490
184.878   0.865
184.888   0.670
184.898   1.210
184.907   1.084
184.917   1.286
184.927   1.318
184.937   1.875
184.946   2.029
184.956   2.316
184.966   2.749
184.975   2.419
184.985   2.948
184.995   3.044
185.005   3.389
185.014   3.538
185.024   3.703
185.034   4.099
185.043   4.479
185.053   4.258
185.063   4.749
185.073   4.972
185.082   4.898
185.092   5.223
185.102   5.836
185.112   6.019
185.121   6.441
185.131   6.707
185.141   6.713
185.150   7.079
185.160   7.385
185.170   7.543
185.180   7.721
185.189   7.966
185.199   8.568
185.209   8.443
185.218   8.575
185.228   8.900
185.238   9.331
185.248   9.368
185.257   9.622
185.267   10.018
185.277   10.362
185.287   10.507
185.296   10.757
185.306   10.740
185.316   11.271
185.325   11.662
185.335   11.697
185.345   11.858
185.355   12.134
185.364   12.503
185.374   12.703
185.384   12.621
185.394   13.117
185.403   13.147
185.413   13.576
185.423   13.841
185.432   13.952
185.442   13.845
185.452   14.141
185.462   14.349
185.471   14.772
185.481   14.892
185.491   14.989
185.500   15.495
185.510   15.688
185.520   15.757
185.530   15.925
185.539   16.691
185.549   16.283
185.559   16.841
185.569   16.939
185.578   16.780
185.588   17.288
185.598   17.217
185.607   17.528
185.617   17.932
185.627   17.854
185.637   18.200
185.646   18.240
185.656   18.639
185.666   18.802
185.676   18.898
185.685   19.318
185.695   19.126
185.705   19.507
185.714   19.921
185.724   19.755
185.734   20.028
185.744   20.204
185.753   20.164
185.763   20.590
185.773   20.756
185.782   20.914
185.792   21.121
185.802   21.365
185.812   21.513
185.821   21.544
185.831   21.700
185.841   21.906
185.851   22.040
185.860   22.087
185.870   22.418
185.880   22.528
185.889   22.738
185.899   23.046
185.909   23.111
185.919   23.366
185.928   23.424
185.938   23.677
185.948   23.628
185.957   23.911
185.967   24.078
185.977   24.086
185.987   24.417
185.996   24.507
186.006   24.575
186.016   24.832
186.026   24.730
186.035   25.241
186.045   25.291
186.055   25.466
186.064   25.581
186.074   25.768
186.084   25.863
186.094   26.082
186.103   26.254
186.113   26.226
186.123   26.244
186.133   26.428
186.142   26.719
186.152   26.727
186.162   26.841
186.171   27.032
186.181   27.272
186.191   27.490
186.201   27.556
186.210   27.559
186.220   27.653
186.230   27.900
186.239   28.003
186.249   28.153
186.259   28.343
186.269   28.323
186.278   28.498
186.288   28.631
186.298   28.861
186.308   28.972
186.317   29.099
186.327   29.283
186.337   29.286
186.346   29.368
186.356   29.520
186.366   29.674
186.376   29.801
186.385   29.870
186.395   30.058
186.405   30.008
186.414   30.141
186.424   30.336
186.434   30.344
186.444   30.619
186.453   30.694
186.463   30.948
186.473   30.919
186.483   30.969
186.492   31.157
186.502   31.209
186.512   31.246
186.521   31.433
186.531   31.542
186.541   31.848
186.551   31.892
186.560   31.919
186.570   31.962
186.580   32.040
186.590   32.265
186.599   32.334
186.609   32.381
186.619   32.522
186.628   32.659
186.638   32.622
186.648   32.866
186.658   32.931
186.667   33.140
186.677   33.124
186.687   33.339
186.696   33.532
186.706   33.691
186.716   33.575
186.726   33.801
186.735   33.883
186.745   33.873
186.755   33.947
186.765   34.042
186.774   34.219
186.784   34.504
186.794   34.436
186.803   34.604
186.813   34.693
186.823   34.800
186.833   34.858
186.842   34.877
186.852   35.029
186.862   35.227
186.871   35.372
186.881   35.470
186.891   35.498
186.901   35.638
186.910   35.718
186.920   35.823
186.930   36.085
186.940   36.181
186.949   36.209
186.959   36.343
186.969   36.487
186.978   36.489
186.988   36.783
186.998   36.787
187.008   36.924
187.017   37.071
187.027   37.184
187.037   37.299
187.047   37.553
187.056   37.779
187.066   37.682
187.076   37.870
187.085   37.959
187.095   38.121
187.105   38.278
187.115   38.442
187.124   38.432
187.134   38.667
187.144   38.921
187.153   38.939
187.163   39.133
187.173   39.267
187.183   39.569
187.192   39.547
187.202   39.774
187.212   40.022
187.222   40.116
187.231   40.374
187.241   40.523
187.251   40.774
187.260   40.930
187.270   41.126
187.280   41.296
187.290   41.506
187.299   41.719
187.309   41.961
187.319   42.290
187.328   42.472
187.338   42.694
187.348   42.974
187.358   43.191
187.367   43.443
187.377   43.788
187.387   44.141
187.397   44.391
187.406   44.694
187.416   44.985
187.426   45.422
187.435   45.759
187.445   46.107
187.455   46.500
187.465   46.898
187.474   47.181
187.484   47.581
187.494   47.982
187.504   48.435
187.513   49.527
187.523   49.538
187.533   50.287
187.542   50.784
187.552   51.397
187.562   52.044
187.572   52.708
187.581   53.399
187.591   54.169
187.601   54.883
187.610   55.790
187.620   56.636
187.630   57.611
187.640   58.551
187.649   59.638
187.659   60.746
187.669   61.965
187.679   63.206
187.688   64.557
187.698   65.989
187.708   67.556
187.717   69.170
187.727   70.915
187.737   72.806
187.747   74.816
187.756   76.958
187.766   79.242
187.776   81.654
187.785   84.283
187.795   87.019
187.805   89.970
187.815   92.996
187.824   96.252
187.834   99.666
187.844   103.242
187.854   106.979
187.863   110.782
187.873   114.681
187.883   118.687
187.892   122.702
187.902   126.720
187.912   130.704
187.922   134.593
187.931   138.343
187.941   142.003
187.951   145.451
187.961   148.714
187.970   151.752
187.980   154.599
187.990   157.224
187.999   159.666
188.009   161.902
188.019   163.981
188.029   165.884
188.038   167.632
188.048   169.265
188.058   170.799
188.067   172.209
188.077   173.505
188.087   174.692
188.097   175.834
188.106   176.906
188.116   177.879
188.126   178.830
188.136   179.715
188.145   -179.558
188.155   -178.779
188.165   -178.037
188.174   -177.354
188.184   -176.708
188.194   -176.083
188.204   -175.462
188.213   -174.948
188.223   -174.398
188.233   -173.896
188.243   -173.430
188.252   -172.961
188.262   -172.519
188.272   -172.068
188.281   -171.719
188.291   -171.337
188.301   -170.922
188.311   -170.609
188.320   -170.273
188.330   -169.923
188.340   -169.642
188.349   -169.336
188.359   -168.977
188.369   -168.727
188.379   -168.456
188.388   -168.294
188.398   -167.999
188.408   -167.708
188.418   -167.497
188.427   -167.264
188.437   -167.064
188.447   -166.828
188.456   -166.675
188.466   -166.367
188.476   -166.219
188.486   -166.003
188.495   -165.810
188.505   -165.613
188.515   -165.578
188.524   -165.296
188.534   -165.122
188.544   -165.004
188.554   -164.823
188.563   -164.580
188.573   -164.534
188.583   -164.374
188.593   -164.232
188.602   -164.035
188.612   -163.915
188.622   -163.792
188.631   -163.679
188.641   -163.571
188.651   -163.402
188.661   -163.328
188.670   -163.180
188.680   -163.034
188.690   -162.877
188.700   -162.872
188.709   -162.666
188.719   -162.630
188.729   -162.480
188.738   -162.443
188.748   -162.262
188.758   -162.280
188.768   -162.115
188.777   -162.036
188.787   -161.879
188.797   -161.723
188.806   -161.722
188.816   -161.563
188.826   -161.547
188.836   -161.388
188.845   -161.200
188.855   -161.244
188.865   -161.083
188.875   -161.025
188.884   -161.007
188.894   -160.987
188.904   -160.818
188.913   -160.668
188.923   -160.648
188.933   -160.650
188.943   -160.529
188.952   -160.384
188.962   -160.299
188.972   -160.214
188.981   -160.244
188.991   -160.101
189.001   -160.011
189.011   -159.874
189.020   -159.900
189.030   -159.699
189.040   -159.628
189.050   -159.461
189.059   -159.563
189.069   -159.376
189.079   -159.377
189.088   -159.423
189.098   -159.223
189.108   -159.280
189.118   -159.120
189.127   -159.166
189.137   -159.062
189.147   -158.943
189.157   -158.994
189.166   -158.855
189.176   -158.641
189.186   -158.660
189.195   -158.555
189.205   -158.500
189.215   -158.323
189.225   -158.238
189.234   -158.300
189.244   -158.389
189.254   -158.264
189.263   -158.140
189.273   -158.115
189.283   -158.050
189.293   -158.143
189.302   -157.918
189.312   -157.865
189.322   -157.789
189.332   -157.675
189.341   -157.615
189.351   -157.502
189.361   -157.497
189.370   -157.459
189.380   -157.411
189.390   -157.488
189.400   -157.085
189.409   -157.250
189.419   -157.180
189.429   -157.074
189.438   -156.991
189.448   -157.113
189.458   -157.029
189.468   -156.968
189.477   -156.808
189.487   -156.805
189.497   -156.669
189.507   -156.643
189.516   -156.412
189.526   -156.669
189.536   -156.520
189.545   -156.496
189.555   -156.313
189.565   -156.278
189.575   -156.267
189.584   -156.220
189.594   -156.255
189.604   -156.164
189.614   -155.954
189.623   -156.035
189.633   -156.093
189.643   -156.076
189.652   -156.165
189.662   -155.908
189.672   -155.717
189.682   -155.917
189.691   -155.927
189.701   -155.620
189.711   -156.010
189.720   -156.022
189.730   -155.750
189.740   -155.530
189.750   -155.534
189.759   -155.758
189.769   -155.328
189.779   -155.501
189.789   -155.504
189.798   -155.516
189.808   -155.449
189.818   -155.284
189.827   -155.398
189.837   -155.393
189.847   -155.309
189.857   -154.939
189.866   -155.255
189.876   -155.075
189.886   -154.733
189.895   -155.141
189.905   -155.024
189.915   -154.968
189.925   -154.950
189.934   -154.872
189.944   -154.957
189.954   -154.708
189.964   -155.089
189.973   -154.917
189.983   -155.067
189.993   -154.903
190.002   -155.010
190.012   -154.798
190.022   -155.020
190.032   -154.460
190.041   -154.710
190.051   -154.779
190.061   -155.043
190.071   -154.735
190.080   -154.515
190.090   -154.700
190.100   -154.596
190.109   -154.951
190.119   -154.828
190.129   -154.859
190.139   -154.662
190.148   -154.689
190.158   -154.826
190.168   -154.535
190.177   -154.625
190.187   -154.595
190.197   -154.602
190.207   -154.794
190.216   -154.521
190.226   -154.648
190.236   -154.554
190.246   -154.402
190.255   -154.704
190.265   -154.757
190.275   -154.738
190.284   -154.463
190.294   -154.543
190.304   -154.861
190.314   -154.840
190.323   -154.868
190.333   -154.891
190.343   -155.122
190.352   -154.877
190.362   -154.707
190.372   -154.662
190.382   -154.511
190.391   -154.429
190.401   -154.931
190.411   -154.756
190.421   -154.881
190.430   -154.922
190.440   -154.841
190.450   -155.158
190.459   -154.903
190.469   -155.123
190.479   -154.791
190.489   -154.831
190.498   -155.097
190.508   -154.866
190.518   -155.321
190.528   -155.213
190.537   -155.056
190.547   -155.297
190.557   -154.860
190.566   -155.106
190.576   -154.962
190.586   -154.921
190.596   -155.168
190.605   -155.496
190.615   -155.036
190.625   -154.827
190.634   -155.006
190.644   -155.064
190.654   -154.468
190.664   -155.253
190.673   -155.321
190.683   -154.795
190.693   -155.036
190.703   -155.303
190.712   -155.044
190.722   -154.986
190.732   -155.192
190.741   -154.877
190.751   -155.108
190.761   -155.455
190.771   -155.201
190.780   -155.481
190.790   -155.315
190.800   -155.174
190.810   -155.344
190.819   -155.019
190.829   -155.126
190.839   -155.099
190.848   -155.039
190.858   -155.129
190.868   -155.287
190.878   -155.134
190.887   -154.790
190.897   -155.198
190.907   -154.891
190.916   -154.963
190.926   -155.131
190.936   -155.316
190.946   -155.052
190.955   -155.207
190.965   -155.142
190.975   -154.853
190.985   -155.017
190.994   -154.942
191.004   -155.047
191.014   -155.296
191.023   -155.069
191.033   -154.840
191.043   -155.631
191.053   -155.125
191.062   -154.908
191.072   -154.999
191.082   -154.993
191.091   -154.843
191.101   -154.860
191.111   -154.961
191.121   -155.204
191.130   -155.118
191.140   -154.558
191.150   -154.871
191.160   -154.856
191.169   -154.965
191.179   -155.119
191.189   -154.748
191.198   -155.347
191.208   -154.963
191.218   -154.879
191.228   -154.797
191.237   -155.194
191.247   -154.864
191.257   -154.895
191.267   -154.789
191.276   -155.174
191.286   -155.202
191.296   -155.091
191.305   -155.052
191.315   -154.867
191.325   -154.932
191.335   -154.662
191.344   -155.036
191.354   -155.399
191.364   -154.738
191.373   -154.795
191.383   -155.136
191.393   -154.838
191.403   -154.941
191.412   -154.850
191.422   -154.703
191.432   -155.132
191.442   -154.824
191.451   -155.114
191.461   -154.859
191.471   -155.100
191.480   -155.280
191.490   -155.043
191.500   -154.504
191.510   -154.871
191.519   -155.076
191.529   -155.463
191.539   -155.632
191.548   -154.847
191.558   -154.838
191.568   -154.804
191.578   -155.287
191.587   -155.015
191.597   -154.682
191.607   -154.975
191.617   -154.584
191.626   -155.164
191.636   -155.088
191.646   -155.219
191.655   -155.007
191.665   -154.710
191.675   -154.860
191.685   -154.648
191.694   -155.098
191.704   -154.967
191.714   -154.801
191.724   -154.952
191.733   -155.213
191.743   -154.405
191.753   -154.951
191.762   -155.138
191.772   -154.259
191.782   -154.847
191.792   -154.817
191.801   -155.017
191.811   -155.164
191.821   -154.546
191.830   -154.661
191.840   -154.819
191.850   -154.841
191.860   -154.666
191.869   -154.760
191.879   -154.607
191.889   -154.864
191.899   -154.812
191.908   -154.964
191.918   -154.663
191.928   -155.002
191.937   -154.513
191.947   -154.852
191.957   -154.606
191.967   -155.503
191.976   -154.658
191.986   -154.911
191.996   -154.585
192.005   -154.847
192.015   -154.833
192.025   -154.292
192.035   -154.838
192.044   -154.069
192.054   -154.480
192.064   -154.742
192.074   -154.664
192.083   -154.624
192.093   -154.754
192.103   -154.808
192.112   -154.302
192.122   -154.136
192.132   -155.161
192.142   -154.157
192.151   -154.645
192.161   -154.728
192.171   -154.522
192.181   -154.698
192.190   -154.472
192.200   -154.590
192.210   -154.368
192.219   -154.483
192.229   -154.995
192.239   -154.827
192.249   -154.238
192.258   -154.336
192.268   -154.631
192.278   -154.226
192.287   -154.768
192.297   -154.785
192.307   -153.934
192.317   -154.196
192.326   -154.012
192.336   -154.104
192.346   -154.608
192.356   -154.271
192.365   -154.154
192.375   -154.229
192.385   -153.883
192.394   -154.156
192.404   -154.839
192.414   -153.999
192.424   -154.284
192.433   -153.923
192.443   -154.012
192.453   -153.763
192.462   -154.247
192.472   -153.930
192.482   -153.990
192.492   -154.219
192.501   -153.851
192.511   -153.737
192.521   -154.547
192.531   -154.163
192.540   -153.878
192.550   -153.679
192.560   -154.175
192.569   -153.951
192.579   -153.579
192.589   -153.795
192.599   -153.658
192.608   -154.007
192.618   -153.812
192.628   -153.956
192.638   -153.457
192.647   -153.613
192.657   -153.329
192.667   -153.367
192.676   -153.397
192.686   -153.212
192.696   -153.780
192.706   -153.922
192.715   -153.525
192.725   -153.420
192.735   -153.246
192.744   -153.558
192.754   -153.354
192.764   -153.152
192.774   -153.035
192.783   -153.419
192.793   -153.259
192.803   -153.064
192.813   -153.130
192.822   -152.778
192.832   -153.276
192.842   -153.085
192.851   -153.752
192.861   -152.895
192.871   -153.504
192.881   -153.112
192.890   -152.702
192.900   -152.636
192.910   -153.258
192.919   -152.786
192.929   -153.231
192.939   -152.504
192.949   -152.707
192.958   -152.363
192.968   -152.743
192.978   -152.528
192.988   -153.026
192.997   -152.649
193.007   -152.200
193.017   -152.430
193.026   -152.248
193.036   -152.214
193.046   -151.958
193.056   -152.357
193.065   -152.537
193.075   -151.670
193.085   -151.659
193.095   -151.965
193.104   -152.349



