3/10/2021 10:00:23 AM
Series 1
-----------------------------------------------
Frequency (kHz)	Degrees (Â°)
183.109   47.965
183.118   47.403
183.128   46.724
183.138   47.038
183.147   46.087
183.157   46.664
183.167   45.978
183.177   46.351
183.186   46.137
183.196   45.103
183.206   45.497
183.215   45.174
183.225   45.071
183.235   44.621
183.245   45.357
183.254   44.112
183.264   44.274
183.274   44.713
183.284   44.375
183.293   44.077
183.303   43.668
183.313   43.676
183.322   42.421
183.332   44.437
183.342   42.695
183.352   42.028
183.361   42.708
183.371   41.874
183.381   42.083
183.390   41.406
183.400   41.380
183.410   41.760
183.420   41.176
183.429   40.833
183.439   40.283
183.449   39.906
183.459   40.378
183.468   40.137
183.478   39.531
183.488   40.378
183.497   40.320
183.507   39.608
183.517   39.005
183.527   38.915
183.536   38.526
183.546   39.299
183.556   38.144
183.566   37.922
183.575   37.668
183.585   36.938
183.595   37.374
183.604   36.678
183.614   36.395
183.624   37.028
183.634   35.860
183.643   36.365
183.653   36.210
183.663   35.723
183.672   35.417
183.682   35.337
183.692   35.223
183.702   35.171
183.711   34.886
183.721   34.290
183.731   33.857
183.741   33.770
183.750   32.937
183.760   33.495
183.770   33.604
183.779   32.811
183.789   31.424
183.799   32.777
183.809   31.493
183.818   30.946
183.828   30.568
183.838   29.985
183.847   30.308
183.857   29.629
183.867   29.774
183.877   29.054
183.886   27.903
183.896   28.028
183.906   27.936
183.916   27.904
183.925   27.523
183.935   26.601
183.945   26.181
183.954   24.428
183.964   25.723
183.974   24.861
183.984   23.421
183.993   24.420
184.003   23.453
184.013   23.010
184.023   23.966
184.032   21.616
184.042   21.288
184.052   20.961
184.061   21.131
184.071   19.783
184.081   19.796
184.091   19.546
184.100   18.877
184.110   18.021
184.120   17.970
184.129   17.104
184.139   16.755
184.149   16.617
184.159   15.505
184.168   14.931
184.178   14.700
184.188   12.882
184.198   14.529
184.207   12.120
184.217   12.398
184.227   11.883
184.236   11.131
184.246   10.558
184.256   8.917
184.266   9.619
184.275   9.456
184.285   8.267
184.295   7.870
184.304   7.297
184.314   6.134
184.324   6.378
184.334   5.779
184.343   5.658
184.353   4.955
184.363   3.837
184.373   3.579
184.382   3.098
184.392   2.927
184.402   0.795
184.411   1.677
184.421   0.636
184.431   1.218
184.441   -0.269
184.450   0.330
184.460   -0.608
184.470   0.268
184.480   -0.384
184.489   -0.129
184.499   -0.673
184.509   0.009
184.518   -0.938
184.528   -0.980
184.538   -1.710
184.548   -1.441
184.557   -2.046
184.567   -2.581
184.577   -2.864
184.586   -2.560
184.596   -3.345
184.606   -2.776
184.616   -3.139
184.625   -3.396
184.635   -3.653
184.645   -3.764
184.655   -3.778
184.664   -4.095
184.674   -4.091
184.684   -3.923
184.693   -4.066
184.703   -4.547
184.713   -4.396
184.723   -4.037
184.732   -4.243
184.742   -4.341
184.752   -4.574
184.761   -4.454
184.771   -4.409
184.781   -3.291
184.791   -3.935
184.800   -4.213
184.810   -4.099
184.820   -3.742
184.830   -3.642
184.839   -3.457
184.849   -3.184
184.859   -3.142
184.868   -2.687
184.878   -3.062
184.888   -2.491
184.898   -2.348
184.907   -2.176
184.917   -2.170
184.927   -1.703
184.937   -1.251
184.946   -1.311
184.956   -1.458
184.966   -1.219
184.975   -0.660
184.985   -1.136
184.995   -0.463
185.005   -0.602
185.014   -0.015
185.024   -0.026
185.034   -0.002
185.043   0.169
185.053   -0.053
185.063   0.272
185.073   0.624
185.082   0.942
185.092   1.163
185.102   1.557
185.112   1.537
185.121   1.880
185.131   1.841
185.141   2.793
185.150   3.057
185.160   3.207
185.170   3.219
185.180   3.714
185.189   4.383
185.199   4.217
185.209   4.265
185.218   4.748
185.228   4.787
185.238   5.065
185.248   5.645
185.257   5.476
185.267   5.950
185.277   5.794
185.287   6.266
185.296   6.463
185.306   6.930
185.316   7.202
185.325   7.429
185.335   7.909
185.345   7.858
185.355   8.061
185.364   8.526
185.374   8.924
185.384   8.912
185.394   9.293
185.403   9.648
185.413   9.627
185.423   10.006
185.432   10.279
185.442   10.596
185.452   10.926
185.462   10.968
185.471   11.092
185.481   11.556
185.491   11.682
185.500   11.741
185.510   12.354
185.520   12.359
185.530   12.322
185.539   13.071
185.549   12.963
185.559   13.182
185.569   13.809
185.578   13.661
185.588   13.788
185.598   14.269
185.607   14.484
185.617   14.509
185.627   14.953
185.637   15.068
185.646   15.109
185.656   15.622
185.666   15.559
185.676   15.826
185.685   16.020
185.695   16.151
185.705   16.568
185.714   16.588
185.724   16.867
185.734   17.098
185.744   17.128
185.753   17.486
185.763   17.651
185.773   17.756
185.782   17.817
185.792   18.213
185.802   18.230
185.812   18.415
185.821   18.725
185.831   18.584
185.841   19.230
185.851   19.204
185.860   19.391
185.870   19.549
185.880   19.846
185.889   19.841
185.899   20.050
185.909   20.084
185.919   20.246
185.928   20.508
185.938   20.779
185.948   21.013
185.957   20.997
185.967   21.136
185.977   21.212
185.987   21.436
185.996   21.842
186.006   21.684
186.016   22.122
186.026   22.217
186.035   22.457
186.045   22.432
186.055   22.389
186.064   22.830
186.074   22.941
186.084   22.982
186.094   23.160
186.103   23.230
186.113   23.277
186.123   23.629
186.133   23.510
186.142   23.921
186.152   24.043
186.162   24.343
186.171   24.187
186.181   24.302
186.191   24.666
186.201   24.767
186.210   24.793
186.220   24.930
186.230   24.944
186.239   25.183
186.249   25.341
186.259   25.508
186.269   25.507
186.278   25.800
186.288   25.841
186.298   25.938
186.308   25.901
186.317   26.146
186.327   26.233
186.337   26.455
186.346   26.595
186.356   26.711
186.366   26.797
186.376   27.047
186.385   27.077
186.395   27.159
186.405   27.404
186.414   27.412
186.424   27.499
186.434   27.478
186.444   27.777
186.453   27.788
186.463   27.846
186.473   28.131
186.483   28.084
186.492   28.283
186.502   28.300
186.512   28.498
186.521   28.625
186.531   28.693
186.541   28.874
186.551   28.776
186.560   29.210
186.570   29.242
186.580   29.184
186.590   29.335
186.599   29.665
186.609   29.610
186.619   29.859
186.628   29.855
186.638   29.907
186.648   29.889
186.658   30.133
186.667   30.200
186.677   30.357
186.687   30.507
186.696   30.497
186.706   30.716
186.716   30.696
186.726   30.921
186.735   30.914
186.745   31.170
186.755   31.255
186.765   31.348
186.774   31.474
186.784   31.571
186.794   31.481
186.803   31.762
186.813   31.979
186.823   31.893
186.833   32.043
186.842   32.184
186.852   32.259
186.862   32.461
186.871   32.518
186.881   32.639
186.891   32.747
186.901   32.859
186.910   33.028
186.920   33.108
186.930   33.217
186.940   33.370
186.949   33.497
186.959   33.697
186.969   33.729
186.978   33.823
186.988   33.955
186.998   33.953
187.008   34.169
187.017   34.357
187.027   34.408
187.037   34.643
187.047   34.744
187.056   34.877
187.066   35.045
187.076   35.088
187.085   35.287
187.095   35.449
187.105   35.625
187.115   35.705
187.124   35.922
187.134   36.131
187.144   36.132
187.153   36.368
187.163   36.482
187.173   36.680
187.183   36.795
187.192   36.977
187.202   37.100
187.212   37.400
187.222   37.491
187.231   37.718
187.241   37.961
187.251   38.066
187.260   38.328
187.270   38.540
187.280   38.686
187.290   38.896
187.299   39.073
187.309   39.361
187.319   39.574
187.328   39.842
187.338   40.100
187.348   40.393
187.358   40.661
187.367   40.916
187.377   41.229
187.387   41.564
187.397   41.846
187.406   42.175
187.416   42.553
187.426   42.891
187.435   43.179
187.445   43.598
187.455   44.042
187.465   44.407
187.474   44.760
187.484   45.156
187.494   45.538
187.504   46.099
187.513   47.192
187.523   47.219
187.533   47.897
187.542   48.483
187.552   49.187
187.562   49.823
187.572   50.511
187.581   51.228
187.591   51.982
187.601   52.844
187.610   53.727
187.620   54.634
187.630   55.602
187.640   56.667
187.649   57.746
187.659   58.949
187.669   60.193
187.679   61.537
187.688   62.930
187.698   64.440
187.708   66.086
187.717   67.816
187.727   69.647
187.737   71.644
187.747   73.733
187.756   75.978
187.766   78.382
187.776   80.916
187.785   83.640
187.795   86.501
187.805   89.535
187.815   92.722
187.824   96.097
187.834   99.624
187.844   103.275
187.854   107.091
187.863   110.993
187.873   114.954
187.883   118.988
187.892   123.000
187.902   127.005
187.912   130.931
187.922   134.757
187.931   138.430
187.941   141.955
187.951   145.270
187.961   148.411
187.970   151.302
187.980   154.001
187.990   156.515
187.999   158.834
188.009   160.933
188.019   162.900
188.029   164.707
188.038   166.389
188.048   167.939
188.058   169.379
188.067   170.718
188.077   171.954
188.087   173.135
188.097   174.249
188.106   175.212
188.116   176.242
188.126   177.085
188.136   177.960
188.145   178.778
188.155   179.499
188.165   -179.886
188.174   -179.227
188.184   -178.559
188.194   -177.974
188.204   -177.407
188.213   -176.852
188.223   -176.343
188.233   -175.790
188.243   -175.349
188.252   -174.922
188.262   -174.423
188.272   -174.040
188.281   -173.654
188.291   -173.326
188.301   -172.927
188.311   -172.634
188.320   -172.228
188.330   -171.846
188.340   -171.607
188.349   -171.247
188.359   -170.968
188.369   -170.663
188.379   -170.424
188.388   -170.183
188.398   -169.851
188.408   -169.690
188.418   -169.362
188.427   -169.166
188.437   -168.912
188.447   -168.793
188.456   -168.597
188.466   -168.300
188.476   -168.122
188.486   -167.940
188.495   -167.683
188.505   -167.614
188.515   -167.362
188.524   -167.186
188.534   -167.018
188.544   -166.801
188.554   -166.764
188.563   -166.583
188.573   -166.326
188.583   -166.233
188.593   -166.155
188.602   -165.957
188.612   -165.643
188.622   -165.754
188.631   -165.495
188.641   -165.395
188.651   -165.364
188.661   -165.161
188.670   -165.038
188.680   -164.789
188.690   -164.724
188.700   -164.670
188.709   -164.473
188.719   -164.393
188.729   -164.372
188.738   -164.185
188.748   -164.139
188.758   -164.084
188.768   -163.789
188.777   -163.645
188.787   -163.688
188.797   -163.593
188.806   -163.453
188.816   -163.300
188.826   -163.291
188.836   -163.190
188.845   -163.027
188.855   -162.913
188.865   -162.829
188.875   -162.828
188.884   -162.661
188.894   -162.569
188.904   -162.401
188.913   -162.360
188.923   -162.299
188.933   -162.212
188.943   -162.168
188.952   -162.043
188.962   -162.099
188.972   -162.073
188.981   -161.915
188.991   -161.627
189.001   -161.532
189.011   -161.431
189.020   -161.519
189.030   -161.384
189.040   -161.419
189.050   -161.226
189.059   -161.190
189.069   -161.198
189.079   -161.030
189.088   -160.928
189.098   -160.964
189.108   -160.792
189.118   -160.674
189.127   -160.727
189.137   -160.588
189.147   -160.524
189.157   -160.541
189.166   -160.393
189.176   -160.335
189.186   -160.541
189.195   -160.122
189.205   -160.085
189.215   -159.941
189.225   -160.006
189.234   -159.822
189.244   -159.786
189.254   -159.895
189.263   -159.725
189.273   -159.698
189.283   -159.661
189.293   -159.558
189.302   -159.337
189.312   -159.217
189.322   -159.510
189.332   -159.387
189.341   -159.110
189.351   -159.167
189.361   -159.136
189.370   -158.978
189.380   -159.075
189.390   -158.756
189.400   -158.754
189.409   -158.775
189.419   -158.622
189.429   -158.749
189.438   -158.607
189.448   -158.764
189.458   -158.453
189.468   -158.574
189.477   -158.468
189.487   -158.419
189.497   -158.331
189.507   -158.271
189.516   -158.025
189.526   -158.328
189.536   -158.165
189.545   -158.248
189.555   -158.069
189.565   -158.053
189.575   -158.101
189.584   -157.994
189.594   -157.623
189.604   -157.918
189.614   -157.683
189.623   -157.983
189.633   -157.759
189.643   -157.619
189.652   -157.636
189.662   -157.549
189.672   -157.498
189.682   -157.314
189.691   -157.590
189.701   -157.452
189.711   -157.633
189.720   -157.246
189.730   -157.535
189.740   -157.470
189.750   -157.467
189.759   -157.117
189.769   -157.197
189.779   -157.143
189.789   -156.936
189.798   -157.177
189.808   -157.073
189.818   -157.067
189.827   -156.926
189.837   -157.029
189.847   -156.741
189.857   -156.928
189.866   -156.896
189.876   -157.074
189.886   -156.782
189.895   -156.958
189.905   -156.912
189.915   -157.025
189.925   -156.974
189.934   -156.878
189.944   -156.665
189.954   -156.738
189.964   -156.629
189.973   -157.024
189.983   -157.154
189.993   -156.871
190.002   -156.820
190.012   -156.711
190.022   -156.563
190.032   -156.779
190.041   -156.555
190.051   -156.742
190.061   -156.747
190.071   -156.495
190.080   -157.041
190.090   -156.730
190.100   -156.746
190.109   -156.934
190.119   -156.763
190.129   -156.926
190.139   -156.713
190.148   -156.735
190.158   -156.898
190.168   -156.755
190.177   -156.673
190.187   -156.823
190.197   -156.655
190.207   -156.593
190.216   -156.745
190.226   -157.100
190.236   -156.808
190.246   -156.836
190.255   -156.782
190.265   -156.954
190.275   -156.986
190.284   -156.574
190.294   -156.913
190.304   -156.814
190.314   -156.706
190.323   -156.753
190.333   -157.062
190.343   -156.640
190.352   -156.655
190.362   -156.867
190.372   -156.756
190.382   -156.671
190.391   -157.192
190.401   -156.747
190.411   -156.862
190.421   -156.924
190.430   -156.769
190.440   -156.761
190.450   -156.804
190.459   -156.782
190.469   -156.648
190.479   -156.773
190.489   -156.924
190.498   -156.946
190.508   -156.847
190.518   -157.113
190.528   -156.828
190.537   -156.984
190.547   -156.801
190.557   -157.031
190.566   -157.150
190.576   -156.904
190.586   -156.713
190.596   -157.049
190.605   -157.013
190.615   -157.209
190.625   -156.585
190.634   -157.249
190.644   -157.008
190.654   -157.077
190.664   -157.236
190.673   -157.578
190.683   -157.173
190.693   -156.979
190.703   -156.920
190.712   -157.151
190.722   -156.534
190.732   -157.083
190.741   -156.442
190.751   -157.136
190.761   -157.146
190.771   -157.406
190.780   -156.870
190.790   -156.655
190.800   -157.004
190.810   -156.942
190.819   -156.988
190.829   -156.738
190.839   -156.798
190.848   -156.806
190.858   -156.575
190.868   -156.789
190.878   -157.111
190.887   -156.847
190.897   -157.098
190.907   -156.925
190.916   -157.045
190.926   -156.916
190.936   -156.807
190.946   -156.828
190.955   -156.653
190.965   -156.773
190.975   -156.999
190.985   -156.919
190.994   -156.840
191.004   -156.971
191.014   -156.744
191.023   -156.772
191.033   -157.198
191.043   -156.793
191.053   -156.810
191.062   -156.641
191.072   -156.747
191.082   -157.395
191.091   -156.892
191.101   -156.356
191.111   -157.152
191.121   -156.752
191.130   -156.904
191.140   -157.024
191.150   -157.129
191.160   -156.282
191.169   -156.313
191.179   -156.931
191.189   -156.856
191.198   -156.602
191.208   -156.617
191.218   -156.873
191.228   -156.626
191.237   -156.797
191.247   -156.633
191.257   -156.533
191.267   -156.757
191.276   -156.499
191.286   -156.768
191.296   -156.433
191.305   -156.521
191.315   -156.753
191.325   -156.748
191.335   -156.372
191.344   -156.694
191.354   -156.992
191.364   -156.518
191.373   -156.629
191.383   -156.483
191.393   -156.710
191.403   -156.770
191.412   -156.548
191.422   -156.586
191.432   -156.621
191.442   -156.388
191.451   -156.751
191.461   -156.186
191.471   -157.043
191.480   -156.606
191.490   -156.582
191.500   -156.528
191.510   -156.681
191.519   -156.626
191.529   -156.805
191.539   -156.364
191.548   -156.442
191.558   -156.431
191.568   -156.502
191.578   -156.568
191.587   -156.567
191.597   -156.405
191.607   -156.503
191.617   -156.663
191.626   -156.663
191.636   -157.119
191.646   -156.519
191.655   -156.656
191.665   -156.419
191.675   -156.535
191.685   -156.941
191.694   -155.858
191.704   -156.233
191.714   -156.929
191.724   -156.383
191.733   -156.453
191.743   -156.918
191.753   -156.206
191.762   -156.508
191.772   -156.596
191.782   -156.461
191.792   -156.114
191.801   -156.425
191.811   -156.475
191.821   -156.610
191.830   -156.391
191.840   -156.885
191.850   -156.841
191.860   -155.968
191.869   -156.439
191.879   -156.222
191.889   -156.534
191.899   -156.789
191.908   -156.457
191.918   -156.022
191.928   -156.188
191.937   -156.227
191.947   -156.487
191.957   -156.076
191.967   -156.248
191.976   -156.335
191.986   -156.227
191.996   -156.649
192.005   -156.171
192.015   -155.812
192.025   -156.409
192.035   -156.157
192.044   -156.556
192.054   -156.591
192.064   -156.139
192.074   -156.047
192.083   -156.571
192.093   -156.418
192.103   -156.310
192.112   -156.364
192.122   -156.682
192.132   -156.453
192.142   -155.757
192.151   -156.252
192.161   -156.454
192.171   -156.348
192.181   -156.109
192.190   -156.354
192.200   -156.216
192.210   -156.356
192.219   -156.208
192.229   -155.913
192.239   -156.489
192.249   -156.208
192.258   -155.896
192.268   -156.023
192.278   -155.846
192.287   -156.004
192.297   -155.753
192.307   -155.449
192.317   -155.660
192.326   -155.769
192.336   -156.288
192.346   -155.583
192.356   -155.459
192.365   -155.754
192.375   -155.796
192.385   -155.143
192.394   -155.563
192.404   -155.513
192.414   -155.697
192.424   -155.589
192.433   -155.990
192.443   -155.950
192.453   -155.441
192.462   -155.784
192.472   -155.629
192.482   -155.306
192.492   -155.443
192.501   -155.099
192.511   -156.023
192.521   -155.226
192.531   -155.330
192.540   -155.277
192.550   -155.202
192.560   -155.524
192.569   -155.019
192.579   -155.220
192.589   -155.369
192.599   -155.245
192.608   -155.160
192.618   -155.071
192.628   -154.705
192.638   -155.121
192.647   -155.411
192.657   -155.616
192.667   -155.155
192.676   -154.826
192.686   -155.492
192.696   -154.572
192.706   -154.849
192.715   -154.433
192.725   -155.405
192.735   -155.437
192.744   -154.759
192.754   -154.758
192.764   -154.498
192.774   -154.749
192.783   -154.418
192.793   -154.350
192.803   -154.846
192.813   -154.588
192.822   -154.439
192.832   -154.403
192.842   -154.492
192.851   -154.974
192.861   -154.189
192.871   -154.197
192.881   -153.654
192.890   -154.574
192.900   -153.926
192.910   -154.291
192.919   -154.378
192.929   -153.846
192.939   -153.631
192.949   -154.105
192.958   -153.673
192.968   -153.917
192.978   -153.826
192.988   -153.766
192.997   -154.077
193.007   -153.735
193.017   -153.710
193.026   -153.756
193.036   -153.160
193.046   -153.452
193.056   -152.762
193.065   -152.908
193.075   -153.045
193.085   -153.094
193.095   -152.951
193.104   -152.855



